Stimulus,IsWord,Valence,CorrectResponse,trials.thisRepN,trials.thisTrialN,trials.thisN,trials.thisIndex,thisRow.t,notes,instructions.started,instructionsText.started,key_resp_2.started,instructions.stopped,key_resp_2.keys,key_resp_2.rt,key_resp_2.duration,trial.started,text.started,key_resp.started,text.stopped,trial.stopped,key_resp.keys,key_resp.rt,key_resp.duration,ParticipantResponse,CorrectResponse,End.started,text_z.started,End.stopped,participant,session,date,expName,psychopyVersion,frameRate,expStart,
,,,,,,,,,,0.004223399999318644,0.022531700000399724,0.022531700000399724,4.9859702000103425,space,4.8723133000021335,None,,,,,,,,,,,,,,007,001,2024-11-22_19h59.23.519,Lexical Decision Making,2024.1.5,None,2024-11-22 19h59.37.213601 +0530,
t a b l e,1.0,neutral,m,0,0,0,6,5.02413209999213,,,,,,,,,5.009223200002452,5.02413209999213,5.02413209999213,5.540068600006634,6.354913499992108,m,1.3196788000059314,None,m,m,,,,007,001,2024-11-22_19h59.23.519,Lexical Decision Making,2024.1.5,None,2024-11-22 19h59.37.213601 +0530,
c a l e n d a r,1.0,neutral,m,0,1,1,86,6.370929600001546,,,,,,,,,6.356514099985361,6.370929600001546,6.370929600001546,6.886170999991009,8.16751060000388,m,1.788007800001651,None,m,m,,,,007,001,2024-11-22_19h59.23.519,Lexical Decision Making,2024.1.5,None,2024-11-22 19h59.37.213601 +0530,
c l i b b e t,0.0,non-word,z,0,2,2,12,8.18181700000423,,,,,,,,,8.168061100004707,8.18181700000423,8.18181700000423,8.68064669999876,9.114207800012082,z,0.9245019000081811,None,z,z,,,,007,001,2024-11-22_19h59.23.519,Lexical Decision Making,2024.1.5,None,2024-11-22 19h59.37.213601 +0530,
d e s p a i r,1.0,negative,m,0,3,3,56,9.129019599989988,,,,,,,,,9.114755899994634,9.129019599989988,9.129019599989988,9.628263899998274,10.659409599989885,m,1.520923700009007,None,m,m,,,,007,001,2024-11-22_19h59.23.519,Lexical Decision Making,2024.1.5,None,2024-11-22 19h59.37.213601 +0530,
g r i e f,1.0,negative,m,0,4,4,50,10.675250600004802,,,,,,,,,10.66022079999675,10.675250600004802,10.675250600004802,11.174347899999702,11.789760499988915,m,1.1098690000071656,None,m,m,,,,007,001,2024-11-22_19h59.23.519,Lexical Decision Making,2024.1.5,None,2024-11-22 19h59.37.213601 +0530,
c r i t i c i s m,1.0,negative,m,0,5,5,26,11.805102499987697,,,,,,,,,11.790300599997863,11.805102499987697,11.805102499987697,12.32030880000093,12.720896499988157,m,0.9144398999924306,None,m,m,,,,007,001,2024-11-22_19h59.23.519,Lexical Decision Making,2024.1.5,None,2024-11-22 19h59.37.213601 +0530,
c h e e r f u l,1.0,positive,m,0,6,6,43,12.736399099987466,,,,,,,,,12.721474499994656,12.736399099987466,12.736399099987466,13.251815900002839,13.884427399985725,m,1.1460962999844924,None,m,m,,,,007,001,2024-11-22_19h59.23.519,Lexical Decision Making,2024.1.5,None,2024-11-22 19h59.37.213601 +0530,
e x c i t e d,1.0,positive,m,0,7,7,10,13.899642200005474,,,,,,,,,13.884956299996702,13.899642200005474,13.899642200005474,14.414665399992373,14.516479799989611,m,0.6021985999832395,None,m,m,,,,007,001,2024-11-22_19h59.23.519,Lexical Decision Making,2024.1.5,None,2024-11-22 19h59.37.213601 +0530,
t w o r i k,0.0,non-word,z,0,8,8,93,14.531749399990076,,,,,,,,,14.517013100004988,14.531749399990076,14.531749399990076,15.046347099996638,15.230167400004575,z,0.6880502999993041,None,z,z,,,,007,001,2024-11-22_19h59.23.519,Lexical Decision Making,2024.1.5,None,2024-11-22 19h59.37.213601 +0530,
w a r,1.0,negative,m,0,9,9,67,15.2461159999948,,,,,,,,,15.230704899993725,15.2461159999948,15.2461159999948,15.76110860001063,16.510405500011984,m,1.2528507000242826,None,m,m,,,,007,001,2024-11-22_19h59.23.519,Lexical Decision Making,2024.1.5,None,2024-11-22 19h59.37.213601 +0530,
p e a c e,1.0,positive,m,0,10,10,89,16.525980300008086,,,,,,,,,16.511134900007164,16.525980300008086,16.525980300008086,17.040886400005547,17.80677980001201,m,1.2739857000124175,None,m,m,,,,007,001,2024-11-22_19h59.23.519,Lexical Decision Making,2024.1.5,None,2024-11-22 19h59.37.213601 +0530,
m o u n t a i n,1.0,neutral,m,0,11,11,71,17.822019899991574,,,,,,,,,17.807324599998537,17.822019899991574,17.822019899991574,,18.272382600000128,m,0.44891989999450743,None,m,m,,,,007,001,2024-11-22_19h59.23.519,Lexical Decision Making,2024.1.5,None,2024-11-22 19h59.37.213601 +0530,
c a b l e,1.0,neutral,m,0,12,12,78,18.28805909998482,,,,,,,,,18.27292089999537,18.28805909998482,18.28805909998482,18.803058499994222,19.236248300003354,m,0.9312954000197351,None,m,m,,,,007,001,2024-11-22_19h59.23.519,Lexical Decision Making,2024.1.5,None,2024-11-22 19h59.37.213601 +0530,
f l o r t,0.0,non-word,z,0,13,13,11,19.251590800005943,,,,,,,,,19.236779900005786,19.251590800005943,19.251590800005943,19.766841800010297,20.0669637999963,z,0.8093809999991208,None,z,z,,,,007,001,2024-11-22_19h59.23.519,Lexical Decision Making,2024.1.5,None,2024-11-22 19h59.37.213601 +0530,
a p p l e,1.0,neutral,m,0,14,14,32,20.082470599998487,,,,,,,,,20.067501699988497,20.082470599998487,20.082470599998487,20.58150719999685,20.998382199992193,m,0.9139899000001606,None,m,m,,,,007,001,2024-11-22_19h59.23.519,Lexical Decision Making,2024.1.5,None,2024-11-22 19h59.37.213601 +0530,
w i n d o w,1.0,neutral,m,0,15,15,80,21.01323740000953,,,,,,,,,20.99911269999575,21.01323740000953,21.01323740000953,21.512247700011358,21.995541199983563,m,0.96816819999367,None,m,m,,,,007,001,2024-11-22_19h59.23.519,Lexical Decision Making,2024.1.5,None,2024-11-22 19h59.37.213601 +0530,
c e l e b r a t i o n,1.0,positive,m,0,16,16,75,22.010747599997558,,,,,,,,,21.996170600003097,22.010747599997558,22.010747599997558,22.52655969999614,22.85949149998487,m,0.8389740000129677,None,m,m,,,,007,001,2024-11-22_19h59.23.519,Lexical Decision Making,2024.1.5,None,2024-11-22 19h59.37.213601 +0530,
j o y f u l,1.0,positive,m,0,17,17,19,22.875299200008158,,,,,,,,,22.860023399989586,22.875299200008158,22.875299200008158,23.390175300010014,23.590752699994482,m,0.7140760000038426,None,m,m,,,,007,001,2024-11-22_19h59.23.519,Lexical Decision Making,2024.1.5,None,2024-11-22 19h59.37.213601 +0530,
m u r k l e,0.0,non-word,z,0,18,18,66,23.606643300008727,,,,,,,,,23.59130189998541,23.606643300008727,23.606643300008727,24.121999099996174,24.505582499987213,z,0.8929520999954548,None,z,z,,,,007,001,2024-11-22_19h59.23.519,Lexical Decision Making,2024.1.5,None,2024-11-22 19h59.37.213601 +0530,
s a d n e s s,1.0,negative,m,0,19,19,88,24.520817199983867,,,,,,,,,24.50633169998764,24.520817199983867,24.520817199983867,25.035802700003842,25.28645630000392,m,0.752285499998834,None,m,m,,,,007,001,2024-11-22_19h59.23.519,Lexical Decision Making,2024.1.5,None,2024-11-22 19h59.37.213601 +0530,
s u c c e s s,1.0,positive,m,0,20,20,35,25.30169140000362,,,,,,,,,25.287005799997132,25.30169140000362,25.30169140000362,25.80040549999103,25.968112900009146,m,0.6570476999913808,None,m,m,,,,007,001,2024-11-22_19h59.23.519,Lexical Decision Making,2024.1.5,None,2024-11-22 19h59.37.213601 +0530,
q u i b l e n,0.0,non-word,z,0,21,21,91,25.983173199987505,,,,,,,,,25.96866750001209,25.983173199987505,25.983173199987505,26.498398800002178,26.865853499999503,z,0.8797993000189308,None,z,z,,,,007,001,2024-11-22_19h59.23.519,Lexical Decision Making,2024.1.5,None,2024-11-22 19h59.37.213601 +0530,
s m o r n,0.0,non-word,z,0,22,22,14,26.880767199996626,,,,,,,,,26.866427300003124,26.880767199996626,26.880767199996626,27.3962152999884,27.712888699985342,z,0.8184048999974038,None,z,z,,,,007,001,2024-11-22_19h59.23.519,Lexical Decision Making,2024.1.5,None,2024-11-22 19h59.37.213601 +0530,
s w o r p y,0.0,non-word,z,0,23,23,69,27.72863940001116,,,,,,,,,27.713419699983206,27.72863940001116,27.72863940001116,28.243910699995467,28.494067099993117,z,0.7575347000092734,None,z,z,,,,007,001,2024-11-22_19h59.23.519,Lexical Decision Making,2024.1.5,None,2024-11-22 19h59.37.213601 +0530,
c r y,1.0,negative,m,0,24,24,61,28.50942159999977,,,,,,,,,28.494608000008157,28.50942159999977,28.50942159999977,29.02507699999842,29.392018099984853,m,0.8691526000038721,None,m,m,,,,007,001,2024-11-22_19h59.23.519,Lexical Decision Making,2024.1.5,None,2024-11-22 19h59.37.213601 +0530,
g r i n d l e,0.0,non-word,z,0,25,25,17,29.407333100010874,,,,,,,,,29.392553499987116,29.407333100010874,29.407333100010874,29.922716600005515,30.855022600007942,m,1.437347500002943,None,m,z,,,,007,001,2024-11-22_19h59.23.519,Lexical Decision Making,2024.1.5,None,2024-11-22 19h59.37.213601 +0530,
h o p e,1.0,positive,m,0,26,26,46,30.869960699987132,,,,,,,,,30.85554960000445,30.869960699987132,30.869960699987132,31.38514589998522,32.135106100002304,m,1.2577864000049885,None,m,m,,,,007,001,2024-11-22_19h59.23.519,Lexical Decision Making,2024.1.5,None,2024-11-22 19h59.37.213601 +0530,
g r u f f i l,0.0,non-word,z,0,27,27,49,32.15001680000569,,,,,,,,,32.13569450000068,32.15001680000569,32.15001680000569,32.66482099998393,33.14816929999506,z,0.9817383000045083,None,z,z,,,,007,001,2024-11-22_19h59.23.519,Lexical Decision Making,2024.1.5,None,2024-11-22 19h59.37.213601 +0530,
f e a r f u l,1.0,negative,m,0,28,28,2,33.1634994999913,,,,,,,,,33.148721700010356,33.1634994999913,33.1634994999913,33.678777699999046,33.829813999996986,m,0.6544350999756716,None,m,m,,,,007,001,2024-11-22_19h59.23.519,Lexical Decision Making,2024.1.5,None,2024-11-22 19h59.37.213601 +0530,
l o m e b,0.0,non-word,z,0,29,29,90,33.845324699999765,,,,,,,,,33.830547099991236,33.845324699999765,33.845324699999765,34.36048880001181,34.79337420000229,z,0.9340044000127818,None,z,z,,,,007,001,2024-11-22_19h59.23.519,Lexical Decision Making,2024.1.5,None,2024-11-22 19h59.37.213601 +0530,
c l o c k,1.0,neutral,m,0,30,30,20,34.80899190000491,,,,,,,,,34.793915799993556,34.80899190000491,34.80899190000491,35.324649099988164,35.55832169999485,m,0.741011999984039,None,m,m,,,,007,001,2024-11-22_19h59.23.519,Lexical Decision Making,2024.1.5,None,2024-11-22 19h59.37.213601 +0530,
a c h i e v e m e n t,1.0,positive,m,0,31,31,27,35.57355299999472,,,,,,,,,35.55885269999271,35.57355299999472,35.57355299999472,36.08893790000002,36.15643189998809,m,0.5782251000055112,None,m,m,,,,007,001,2024-11-22_19h59.23.519,Lexical Decision Making,2024.1.5,None,2024-11-22 19h59.37.213601 +0530,
d r o n t,0.0,non-word,z,0,32,32,95,36.17174809999415,,,,,,,,,36.156971599993994,36.17174809999415,36.17174809999415,36.670900600001914,36.904375999991316,z,0.7279067999916151,None,z,z,,,,007,001,2024-11-22_19h59.23.519,Lexical Decision Making,2024.1.5,None,2024-11-22 19h59.37.213601 +0530,
v i c t o r y,1.0,positive,m,0,33,33,25,36.920059399999445,,,,,,,,,36.90490930000669,36.920059399999445,36.920059399999445,37.43522210000083,37.55357940000249,m,0.625040099985199,None,m,m,,,,007,001,2024-11-22_19h59.23.519,Lexical Decision Making,2024.1.5,None,2024-11-22 19h59.37.213601 +0530,
s m a g l e,0.0,non-word,z,0,34,34,53,37.56892439999501,,,,,,,,,37.55410959999426,37.56892439999501,37.56892439999501,38.083068500010995,38.251347399986116,z,0.6707375000114553,None,z,z,,,,007,001,2024-11-22_19h59.23.519,Lexical Decision Making,2024.1.5,None,2024-11-22 19h59.37.213601 +0530,
h a p p y,1.0,positive,m,0,35,35,21,38.26663530000951,,,,,,,,,38.25200730000506,38.26663530000951,38.26663530000951,38.7818016000092,38.898766900005285,m,0.628978000022471,None,m,m,,,,007,001,2024-11-22_19h59.23.519,Lexical Decision Making,2024.1.5,None,2024-11-22 19h59.37.213601 +0530,
p e n c i l,1.0,neutral,m,0,36,36,37,38.914511499984656,,,,,,,,,38.89929659999325,38.914511499984656,38.914511499984656,39.42994460000773,39.63110030000098,m,0.7152427000110038,None,m,m,,,,007,001,2024-11-22_19h59.23.519,Lexical Decision Making,2024.1.5,None,2024-11-22 19h59.37.213601 +0530,
k i n d n e s s,1.0,positive,m,0,37,37,82,39.6463148999901,,,,,,,,,39.63180000000284,39.6463148999901,39.6463148999901,40.16069560000324,40.295849499991164,m,0.6324581000080798,None,m,m,,,,007,001,2024-11-22_19h59.23.519,Lexical Decision Making,2024.1.5,None,2024-11-22 19h59.37.213601 +0530,
d r e n k,0.0,non-word,z,0,38,38,4,40.3108263000031,,,,,,,,,40.296729299996514,40.3108263000031,40.3108263000031,40.825869799999055,40.877429499989375,z,0.5594550000096206,None,z,z,,,,007,001,2024-11-22_19h59.23.519,Lexical Decision Making,2024.1.5,None,2024-11-22 19h59.37.213601 +0530,
s t o n e,1.0,neutral,m,0,39,39,13,40.89245359998313,,,,,,,,,40.878163299988955,40.89245359998313,40.89245359998313,,41.359131400007755,m,0.4599961999920197,None,m,m,,,,007,001,2024-11-22_19h59.23.519,Lexical Decision Making,2024.1.5,None,2024-11-22 19h59.37.213601 +0530,
c l o u d,1.0,neutral,m,0,40,40,94,41.37486159999389,,,,,,,,,41.359662200004095,41.37486159999389,41.37486159999389,41.889629399986006,41.90738059999421,m,0.5179584999859799,None,m,m,,,,007,001,2024-11-22_19h59.23.519,Lexical Decision Making,2024.1.5,None,2024-11-22 19h59.37.213601 +0530,
p e a c e,1.0,positive,m,0,41,41,97,41.9236641000025,,,,,,,,,41.90805530000944,41.9236641000025,41.9236641000025,42.43826399999671,42.47251560000586,m,0.5401437999971677,None,m,m,,,,007,001,2024-11-22_19h59.23.519,Lexical Decision Making,2024.1.5,None,2024-11-22 19h59.37.213601 +0530,
p l o r,0.0,non-word,z,0,42,42,52,42.48786230001133,,,,,,,,,42.473239399987506,42.48786230001133,42.48786230001133,43.00360830000136,43.15415139999823,z,0.6561847999983002,None,z,z,,,,007,001,2024-11-22_19h59.23.519,Lexical Decision Making,2024.1.5,None,2024-11-22 19h59.37.213601 +0530,
g r i e f,1.0,negative,m,0,43,43,62,43.169994099996984,,,,,,,,,43.15469910000684,43.169994099996984,43.169994099996984,43.6849368000112,43.669564100011485,m,0.49671540001872927,None,m,m,,,,007,001,2024-11-22_19h59.23.519,Lexical Decision Making,2024.1.5,None,2024-11-22 19h59.37.213601 +0530,
c r i o u s,0.0,non-word,z,0,44,44,99,43.6849368000112,,,,,,,,,43.670092199987266,43.6849368000112,43.6849368000112,44.200433399993926,44.98235209999257,z,1.292637399979867,None,z,z,,,,007,001,2024-11-22_19h59.23.519,Lexical Decision Making,2024.1.5,None,2024-11-22 19h59.37.213601 +0530,
p l a r k,0.0,non-word,z,0,45,45,16,44.99853360000998,,,,,,,,,44.98289240000304,44.99853360000998,44.99853360000998,45.51355999999214,46.12958740000613,m,1.1253772000200115,None,m,z,,,,007,001,2024-11-22_19h59.23.519,Lexical Decision Making,2024.1.5,None,2024-11-22 19h59.37.213601 +0530,
t r a g e d y,1.0,negative,m,0,46,46,70,46.144908899994334,,,,,,,,,46.13013370000408,46.144908899994334,46.144908899994334,46.66006449999986,47.226333700004034,m,1.0689274999895133,None,m,m,,,,007,001,2024-11-22_19h59.23.519,Lexical Decision Making,2024.1.5,None,2024-11-22 19h59.37.213601 +0530,
r e g r e t,1.0,negative,m,0,47,47,64,47.24213830000372,,,,,,,,,47.22687610000139,47.24213830000372,47.24213830000372,47.75715950000449,48.240321499994025,m,0.9956417000212241,None,m,m,,,,007,001,2024-11-22_19h59.23.519,Lexical Decision Making,2024.1.5,None,2024-11-22 19h59.37.213601 +0530,
p l a n e t,1.0,neutral,m,0,48,48,47,48.255789499991806,,,,,,,,,48.24084660000517,48.255789499991806,48.255789499991806,48.771099200006574,48.955094000004465,m,0.6968468999839388,None,m,m,,,,007,001,2024-11-22_19h59.23.519,Lexical Decision Making,2024.1.5,None,2024-11-22 19h59.37.213601 +0530,
t r a i n,1.0,neutral,m,0,49,49,40,48.97019649998401,,,,,,,,,48.95572560001165,48.97019649998401,48.97019649998401,49.48551349999616,49.81926829999429,m,0.8473463999980595,None,m,m,,,,007,001,2024-11-22_19h59.23.519,Lexical Decision Making,2024.1.5,None,2024-11-22 19h59.37.213601 +0530,
b r a s k,0.0,non-word,z,0,50,50,79,49.83490190000157,,,,,,,,,49.81979780000984,49.83490190000157,49.83490190000157,50.35022819999722,51.4311757000105,m,1.5933259000012185,None,m,z,,,,007,001,2024-11-22_19h59.23.519,Lexical Decision Making,2024.1.5,None,2024-11-22 19h59.37.213601 +0530,
a n g e r,1.0,negative,m,0,51,51,15,51.446703499997966,,,,,,,,,51.43171790000633,51.446703499997966,51.446703499997966,51.96282630000496,53.010724499996286,m,1.5567063999769744,None,m,m,,,,007,001,2024-11-22_19h59.23.519,Lexical Decision Making,2024.1.5,None,2024-11-22 19h59.37.213601 +0530,
z o m p r e,0.0,non-word,z,0,52,52,73,53.02872159998515,,,,,,,,,53.01140019999002,53.02872159998515,53.02872159998515,53.54101270000683,55.55422190000536,z,2.5188685999892186,None,z,z,,,,007,001,2024-11-22_19h59.23.519,Lexical Decision Making,2024.1.5,None,2024-11-22 19h59.37.213601 +0530,
f e a r f u l,1.0,negative,m,0,53,53,98,55.56925480000791,,,,,,,,,55.554753800010076,55.56925480000791,55.56925480000791,56.0680827999895,56.70084879998467,m,1.1155232999881264,None,m,m,,,,007,001,2024-11-22_19h59.23.519,Lexical Decision Making,2024.1.5,None,2024-11-22 19h59.37.213601 +0530,
d r i n t,0.0,non-word,z,0,54,54,36,56.7164048999839,,,,,,,,,56.70152679999592,56.7164048999839,56.7164048999839,57.23190019998583,57.398626999987755,z,0.6778633999929298,None,z,z,,,,007,001,2024-11-22_19h59.23.519,Lexical Decision Making,2024.1.5,None,2024-11-22 19h59.37.213601 +0530,
s m i l e,1.0,positive,m,0,55,55,92,57.41386939998483,,,,,,,,,57.39916309999535,57.41386939998483,57.41386939998483,57.912835499999346,57.996860599989304,m,0.5812704999989364,None,m,m,,,,007,001,2024-11-22_19h59.23.519,Lexical Decision Making,2024.1.5,None,2024-11-22 19h59.37.213601 +0530,
v o b l i t,0.0,non-word,z,0,56,56,38,58.01209820000804,,,,,,,,,57.99738710001111,58.01209820000804,58.01209820000804,58.511221699998714,58.59561029999168,z,0.5730705999885686,None,z,z,,,,007,001,2024-11-22_19h59.23.519,Lexical Decision Making,2024.1.5,None,2024-11-22 19h59.37.213601 +0530,
c a r p e t,1.0,neutral,m,0,57,57,85,58.61051940001198,,,,,,,,,58.59619620000012,58.61051940001198,58.61051940001198,59.109519999998156,59.1607609000057,m,0.5338507000124082,None,m,m,,,,007,001,2024-11-22_19h59.23.519,Lexical Decision Making,2024.1.5,None,2024-11-22 19h59.37.213601 +0530,
s o r r o w,1.0,negative,m,0,58,58,33,59.176654000009876,,,,,,,,,59.161322600004496,59.176654000009876,59.176654000009876,59.69094890000997,59.82514239999,z,0.645402499998454,None,z,m,,,,007,001,2024-11-22_19h59.23.519,Lexical Decision Making,2024.1.5,None,2024-11-22 19h59.37.213601 +0530,
s m i l e,1.0,positive,m,0,59,59,55,59.840602499985835,,,,,,,,,59.825669699988794,59.840602499985835,59.840602499985835,60.3563077999861,60.4730802999984,m,0.6246936999959871,None,m,m,,,,007,001,2024-11-22_19h59.23.519,Lexical Decision Making,2024.1.5,None,2024-11-22 19h59.37.213601 +0530,
b l o r p,0.0,non-word,z,0,60,60,60,60.48869900000864,,,,,,,,,60.473609999986365,60.48869900000864,60.48869900000864,60.98740230000112,61.08806380000897,m,0.5866543000156526,None,m,z,,,,007,001,2024-11-22_19h59.23.519,Lexical Decision Making,2024.1.5,None,2024-11-22 19h59.37.213601 +0530,
s a d n e s s,1.0,negative,m,0,61,61,65,61.10394179998548,,,,,,,,,61.088607799989404,61.10394179998548,61.10394179998548,61.6193620999984,62.485331500007305,m,1.367412499996135,None,m,m,,,,007,001,2024-11-22_19h59.23.519,Lexical Decision Making,2024.1.5,None,2024-11-22 19h59.37.213601 +0530,
g r i n d l e,0.0,non-word,z,0,62,62,54,62.50019289998454,,,,,,,,,62.486083800002234,62.50019289998454,62.50019289998454,63.01533739999286,63.84812640000018,z,1.3360242000198923,None,z,z,,,,007,001,2024-11-22_19h59.23.519,Lexical Decision Making,2024.1.5,None,2024-11-22 19h59.37.213601 +0530,
p e n c i l,1.0,neutral,m,0,63,63,24,63.863571499998216,,,,,,,,,63.84865709999576,63.863571499998216,63.863571499998216,,64.31293230000301,m,0.43238499999279156,None,m,m,,,,007,001,2024-11-22_19h59.23.519,Lexical Decision Making,2024.1.5,None,2024-11-22 19h59.37.213601 +0530,
c l o c k,1.0,neutral,m,0,64,64,48,64.3286752999993,,,,,,,,,64.31346539998776,64.3286752999993,64.3286752999993,64.84361819998594,64.89501079998445,m,0.5595917000027839,None,m,m,,,,007,001,2024-11-22_19h59.23.519,Lexical Decision Making,2024.1.5,None,2024-11-22 19h59.37.213601 +0530,
p a i n,1.0,negative,m,0,65,65,83,64.91031869998551,,,,,,,,,64.89553519999026,64.91031869998551,64.91031869998551,65.40899419999914,67.20573419998982,m,2.293410100013716,None,m,m,,,,007,001,2024-11-22_19h59.23.519,Lexical Decision Making,2024.1.5,None,2024-11-22 19h59.37.213601 +0530,
b l o r p,0.0,non-word,z,0,66,66,5,67.22072290000506,,,,,,,,,67.20666419999907,67.22072290000506,67.22072290000506,67.73601210000925,67.93662269998458,z,0.7001129999989644,None,z,z,,,,007,001,2024-11-22_19h59.23.519,Lexical Decision Making,2024.1.5,None,2024-11-22 19h59.37.213601 +0530,
m i s e r y,1.0,negative,m,0,67,67,34,67.95186020000256,,,,,,,,,67.93717550000292,67.95186020000256,67.95186020000256,68.4674146999896,68.53441299998667,m,0.5661626000073738,None,m,m,,,,007,001,2024-11-22_19h59.23.519,Lexical Decision Making,2024.1.5,None,2024-11-22 19h59.37.213601 +0530,
g r a t i t u d e,1.0,positive,m,0,68,68,41,68.5504704999912,,,,,,,,,68.53498070000205,68.5504704999912,68.5504704999912,69.06564590000198,69.06695509998826,m,0.5147503000043798,None,m,m,,,,007,001,2024-11-22_19h59.23.519,Lexical Decision Making,2024.1.5,None,2024-11-22 19h59.37.213601 +0530,
t r e n k,0.0,non-word,z,0,69,69,57,69.08204569999361,,,,,,,,,69.06748239998706,69.08204569999361,69.08204569999361,69.59724840000854,69.66539069998544,z,0.5725452000042424,None,z,z,,,,007,001,2024-11-22_19h59.23.519,Lexical Decision Making,2024.1.5,None,2024-11-22 19h59.37.213601 +0530,
a n g e r,1.0,negative,m,0,70,70,44,69.68020179998712,,,,,,,,,69.6659406000108,69.68020179998712,69.68020179998712,70.19568420000724,70.23028560000239,m,0.5394199000147637,None,m,m,,,,007,001,2024-11-22_19h59.23.519,Lexical Decision Making,2024.1.5,None,2024-11-22 19h59.37.213601 +0530,
l o s s,1.0,negative,m,0,71,71,29,70.245471000002,,,,,,,,,70.23081609999645,70.245471000002,70.245471000002,70.7614237999951,70.81280789998709,m,0.5573457999853417,None,m,m,,,,007,001,2024-11-22_19h59.23.519,Lexical Decision Making,2024.1.5,None,2024-11-22 19h59.37.213601 +0530,
v a b l i n,0.0,non-word,z,0,72,72,1,70.8275112999836,,,,,,,,,70.81349309999496,70.8275112999836,70.8275112999836,71.3434803999844,71.51005760001135,z,0.6656319000176154,None,z,z,,,,007,001,2024-11-22_19h59.23.519,Lexical Decision Making,2024.1.5,None,2024-11-22 19h59.37.213601 +0530,
g r i e f,1.0,negative,m,0,73,73,81,71.52576689998386,,,,,,,,,71.51060169999255,71.52576689998386,71.52576689998386,72.04129850000027,72.10818569999537,m,0.5747629999823403,None,m,m,,,,007,001,2024-11-22_19h59.23.519,Lexical Decision Making,2024.1.5,None,2024-11-22 19h59.37.213601 +0530,
b o t t l e,1.0,neutral,m,0,74,74,58,72.1235069000104,,,,,,,,,72.10871929998393,72.1235069000104,72.1235069000104,72.63907529998687,72.85615199999302,m,0.7275972999923397,None,m,m,,,,007,001,2024-11-22_19h59.23.519,Lexical Decision Making,2024.1.5,None,2024-11-22 19h59.37.213601 +0530,
d r i n t,0.0,non-word,z,0,75,75,23,72.87188500000047,,,,,,,,,72.85668100000476,72.87188500000047,72.87188500000047,73.38698189999559,73.57109429998673,z,0.6898367000103462,None,z,z,,,,007,001,2024-11-22_19h59.23.519,Lexical Decision Making,2024.1.5,None,2024-11-22 19h59.37.213601 +0530,
c o m f o r t,1.0,positive,m,0,76,76,59,73.58615970000392,,,,,,,,,73.5716332999873,73.58615970000392,73.58615970000392,74.10168610000983,74.65114619999076,m,1.060856900003273,None,m,m,,,,007,001,2024-11-22_19h59.23.519,Lexical Decision Making,2024.1.5,None,2024-11-22 19h59.37.213601 +0530,
e x c i t e d,1.0,positive,m,0,77,77,72,74.66670080000767,,,,,,,,,74.65168020001147,74.66670080000767,74.66670080000767,75.18200599998818,75.39920240000356,m,0.7185314999951515,None,m,m,,,,007,001,2024-11-22_19h59.23.519,Lexical Decision Making,2024.1.5,None,2024-11-22 19h59.37.213601 +0530,
p l a r k,0.0,non-word,z,0,78,78,45,75.41466650000075,,,,,,,,,75.39973219999229,75.41466650000075,75.41466650000075,75.91366779999225,76.04797959999996,z,0.6305984999926295,None,z,z,,,,007,001,2024-11-22_19h59.23.519,Lexical Decision Making,2024.1.5,None,2024-11-22 19h59.37.213601 +0530,
s a d,1.0,negative,m,0,79,79,87,76.06357199998456,,,,,,,,,76.04850579999038,76.06357199998456,76.06357199998456,76.57808949999162,76.69556560000638,m,0.6228244999947492,None,m,m,,,,007,001,2024-11-22_19h59.23.519,Lexical Decision Making,2024.1.5,None,2024-11-22 19h59.37.213601 +0530,
d r e a m,1.0,positive,m,0,80,80,9,76.71168919999036,,,,,,,,,76.69610169998487,76.71168919999036,76.71168919999036,77.22636179998517,77.4110367000103,m,0.6901891999877989,None,m,m,,,,007,001,2024-11-22_19h59.23.519,Lexical Decision Making,2024.1.5,None,2024-11-22 19h59.37.213601 +0530,
b o o k,1.0,neutral,m,0,81,81,22,77.42614359999425,,,,,,,,,77.41156279999996,77.42614359999425,77.42614359999425,77.94149229998584,78.09226939998916,m,0.6599820000119507,None,m,m,,,,007,001,2024-11-22_19h59.23.519,Lexical Decision Making,2024.1.5,None,2024-11-22 19h59.37.213601 +0530,
c h a i r,1.0,neutral,m,0,82,82,7,78.10785490000853,,,,,,,,,78.09279729999253,78.10785490000853,78.10785490000853,78.623265000002,79.1892785000091,m,1.0751621999952476,None,m,m,,,,007,001,2024-11-22_19h59.23.519,Lexical Decision Making,2024.1.5,None,2024-11-22 19h59.37.213601 +0530,
l a m p,1.0,neutral,m,0,83,83,42,79.20455530000618,,,,,,,,,79.18981519999215,79.20455530000618,79.20455530000618,79.72035499999765,80.00328450000961,m,0.7883638000057545,None,m,m,,,,007,001,2024-11-22_19h59.23.519,Lexical Decision Making,2024.1.5,None,2024-11-22 19h59.37.213601 +0530,
s u n s h i n e,1.0,positive,m,0,84,84,30,80.01913639999111,,,,,,,,,80.00383299999521,80.01913639999111,80.01913639999111,80.5344982999959,80.93428200000199,m,0.9071034000080545,None,m,m,,,,007,001,2024-11-22_19h59.23.519,Lexical Decision Making,2024.1.5,None,2024-11-22 19h59.37.213601 +0530,
d e l i g h t,1.0,positive,m,0,85,85,39,80.95032499998342,,,,,,,,,80.93481149998843,80.95032499998342,80.95032499998342,81.4648967999965,82.09762660000706,m,1.1350163000170141,None,m,m,,,,007,001,2024-11-22_19h59.23.519,Lexical Decision Making,2024.1.5,None,2024-11-22 19h59.37.213601 +0530,
b l o r p,0.0,non-word,z,0,86,86,84,82.11322269999073,,,,,,,,,82.09815949999029,82.11322269999073,82.11322269999073,82.62889240001095,82.72959050000645,z,0.6147003999794833,None,z,z,,,,007,001,2024-11-22_19h59.23.519,Lexical Decision Making,2024.1.5,None,2024-11-22 19h59.37.213601 +0530,
m e t r o,1.0,neutral,m,0,87,87,96,82.74500540000736,,,,,,,,,82.73012659998494,82.74500540000736,82.74500540000736,83.26004860000103,83.42794180000783,m,0.6791898999945261,None,m,m,,,,007,001,2024-11-22_19h59.23.519,Lexical Decision Making,2024.1.5,None,2024-11-22 19h59.37.213601 +0530,
w i n d o w,1.0,neutral,m,0,88,88,68,83.44412850000663,,,,,,,,,83.4286187000107,83.44412850000663,83.44412850000663,83.95823319998453,85.60503889998654,m,2.1570340000034776,None,m,m,,,,007,001,2024-11-22_19h59.23.519,Lexical Decision Making,2024.1.5,None,2024-11-22 19h59.37.213601 +0530,
f a i l u r e,1.0,negative,m,0,89,89,77,85.6204102000047,,,,,,,,,85.60574279999128,85.6204102000047,85.6204102000047,86.13618979998864,86.65215139999054,z,1.0155693000124302,None,z,m,,,,007,001,2024-11-22_19h59.23.519,Lexical Decision Making,2024.1.5,None,2024-11-22 19h59.37.213601 +0530,
z a r f e t,0.0,non-word,z,0,90,90,31,86.66721859999234,,,,,,,,,86.65268510000897,86.66721859999234,86.66721859999234,87.16618520001066,88.9461777000106,z,2.2627350999973714,None,z,z,,,,007,001,2024-11-22_19h59.23.519,Lexical Decision Making,2024.1.5,None,2024-11-22 19h59.37.213601 +0530,
s m o r n,0.0,non-word,z,0,91,91,51,88.96130210001138,,,,,,,,,88.94672139998875,88.96130210001138,88.96130210001138,89.47625830001198,89.51197210000828,z,0.5418976999935694,None,z,z,,,,007,001,2024-11-22_19h59.23.519,Lexical Decision Making,2024.1.5,None,2024-11-22 19h59.37.213601 +0530,
l a w v e r,0.0,non-word,z,0,92,92,76,89.52610980000463,,,,,,,,,89.51252099999692,89.52610980000463,89.52610980000463,90.02503950000391,90.19219959998736,m,0.6564351999841165,None,m,z,,,,007,001,2024-11-22_19h59.23.519,Lexical Decision Making,2024.1.5,None,2024-11-22 19h59.37.213601 +0530,
g r i n d l e,0.0,non-word,z,0,93,93,3,90.20766829999047,,,,,,,,,90.19273390001035,90.20766829999047,90.20766829999047,90.72303809999721,91.2391956000065,z,1.0189290000125766,None,z,z,,,,007,001,2024-11-22_19h59.23.519,Lexical Decision Making,2024.1.5,None,2024-11-22 19h59.37.213601 +0530,
h a t e,1.0,negative,m,0,94,94,74,91.25513269999647,,,,,,,,,91.23973279999336,91.25513269999647,91.25513269999647,91.7700751000084,91.93783509999048,m,0.6749189000111073,None,m,m,,,,007,001,2024-11-22_19h59.23.519,Lexical Decision Making,2024.1.5,None,2024-11-22 19h59.37.213601 +0530,
g l o r b y,0.0,non-word,z,0,95,95,28,91.9534902999876,,,,,,,,,91.93837419999181,91.9534902999876,91.9534902999876,92.46811980000348,92.65246479999041,z,0.6852931999892462,None,z,z,,,,007,001,2024-11-22_19h59.23.519,Lexical Decision Making,2024.1.5,None,2024-11-22 19h59.37.213601 +0530,
c h i n d l e,0.0,non-word,z,0,96,96,8,92.6673385000031,,,,,,,,,92.6529942000052,92.6673385000031,92.6673385000031,93.16664670000318,93.49982080000336,z,0.8152843000134453,None,z,z,,,,007,001,2024-11-22_19h59.23.519,Lexical Decision Making,2024.1.5,None,2024-11-22 19h59.37.213601 +0530,
l o v e,1.0,positive,m,0,97,97,0,93.51575520000188,,,,,,,,,93.5003529000096,93.51575520000188,93.51575520000188,94.03041360000498,94.68004149998887,m,1.1543805999972392,None,m,m,,,,007,001,2024-11-22_19h59.23.519,Lexical Decision Making,2024.1.5,None,2024-11-22 19h59.37.213601 +0530,
l a m p,1.0,neutral,m,0,98,98,18,94.6954521999869,,,,,,,,,94.68058590000146,94.6954521999869,94.6954521999869,95.19460009998875,96.0595287999895,m,1.349573399988003,None,m,m,,,,007,001,2024-11-22_19h59.23.519,Lexical Decision Making,2024.1.5,None,2024-11-22 19h59.37.213601 +0530,
c h e e r,1.0,positive,m,0,99,99,63,96.0751084999938,,,,,,,,,96.0604588999995,96.0751084999938,96.0751084999938,96.59027210000204,96.60784660000354,m,0.5307342000014614,None,m,m,,,,007,001,2024-11-22_19h59.23.519,Lexical Decision Making,2024.1.5,None,2024-11-22 19h59.37.213601 +0530,
f a i l u r e,1.0,negative,m,1,0,100,77,96.62387059998582,,,,,,,,,96.60843799999566,96.62387059998582,96.62387059998582,,97.0571101999958,m,0.4181807000131812,None,m,m,,,,007,001,2024-11-22_19h59.23.519,Lexical Decision Making,2024.1.5,None,2024-11-22 19h59.37.213601 +0530,
b l o r p,0.0,non-word,z,1,1,101,84,97.07226409998839,,,,,,,,,97.05765599998995,97.07226409998839,97.07226409998839,97.57127300000866,97.80474749999121,z,0.7308299999858718,None,z,z,,,,007,001,2024-11-22_19h59.23.519,Lexical Decision Making,2024.1.5,None,2024-11-22 19h59.37.213601 +0530,
r e g r e t,1.0,negative,m,1,2,102,64,97.82081299999845,,,,,,,,,97.80528500000946,97.82081299999845,97.82081299999845,98.33588170001167,99.05172160000075,m,1.213542800018331,None,m,m,,,,007,001,2024-11-22_19h59.23.519,Lexical Decision Making,2024.1.5,None,2024-11-22 19h59.37.213601 +0530,
c a r p e t,1.0,neutral,m,1,3,103,85,99.06701389999944,,,,,,,,,99.05226070000208,99.06701389999944,99.06701389999944,99.58223110000836,99.79989980001119,z,0.7233840000117198,None,z,m,,,,007,001,2024-11-22_19h59.23.519,Lexical Decision Making,2024.1.5,None,2024-11-22 19h59.37.213601 +0530,
g r i e f,1.0,negative,m,1,4,104,50,99.81453709999914,,,,,,,,,99.80043899998418,99.81453709999914,99.81453709999914,100.31338889998733,101.06258959998377,m,1.233014199999161,None,m,m,,,,007,001,2024-11-22_19h59.23.519,Lexical Decision Making,2024.1.5,None,2024-11-22 19h59.37.213601 +0530,
c h i n d l e,0.0,non-word,z,1,5,105,8,101.07840870000655,,,,,,,,,101.06314519999432,101.07840870000655,101.07840870000655,101.59316689998377,102.02683339998475,z,0.9467845000035595,None,z,z,,,,007,001,2024-11-22_19h59.23.519,Lexical Decision Making,2024.1.5,None,2024-11-22 19h59.37.213601 +0530,
q u i b l e n,0.0,non-word,z,1,6,106,91,102.04215029999614,,,,,,,,,102.0274633000081,102.04215029999614,102.04215029999614,102.55718199998955,102.72500979999313,z,0.6723903999954928,None,z,z,,,,007,001,2024-11-22_19h59.23.519,Lexical Decision Making,2024.1.5,None,2024-11-22 19h59.37.213601 +0530,
p l o r,0.0,non-word,z,1,7,107,52,102.74041979998583,,,,,,,,,102.72555830000783,102.74041979998583,102.74041979998583,103.25596999999834,103.25748000000021,z,0.5090925999975298,None,z,z,,,,007,001,2024-11-22_19h59.23.519,Lexical Decision Making,2024.1.5,None,2024-11-22 19h59.37.213601 +0530,
s m a g l e,0.0,non-word,z,1,8,108,53,103.27202090001083,,,,,,,,,103.25801160000265,103.27202090001083,103.27202090001083,103.77023900000495,103.95489789999556,z,0.6716057999874465,None,z,z,,,,007,001,2024-11-22_19h59.23.519,Lexical Decision Making,2024.1.5,None,2024-11-22 19h59.37.213601 +0530,
j o y f u l,1.0,positive,m,1,9,109,19,103.97015730000567,,,,,,,,,103.95542519999435,103.97015730000567,103.97015730000567,,104.43670469999779,z,0.46351070000673644,None,z,m,,,,007,001,2024-11-22_19h59.23.519,Lexical Decision Making,2024.1.5,None,2024-11-22 19h59.37.213601 +0530,
d e s p a i r,1.0,negative,m,1,10,110,56,104.45232479998958,,,,,,,,,104.43755810000584,104.45232479998958,104.45232479998958,104.96776279999176,109.55565419999766,m,5.099221199983731,None,m,m,,,,007,001,2024-11-22_19h59.23.519,Lexical Decision Making,2024.1.5,None,2024-11-22 19h59.37.213601 +0530,
p e n c i l,1.0,neutral,m,1,11,111,24,109.57170569998561,,,,,,,,,109.55620580000686,109.57170569998561,109.57170569998561,110.08702199999243,110.47010740000405,m,0.8834271999949124,None,m,m,,,,007,001,2024-11-22_19h59.23.519,Lexical Decision Making,2024.1.5,None,2024-11-22 19h59.37.213601 +0530,
b l o r p,0.0,non-word,z,1,12,112,5,110.48583530000178,,,,,,,,,110.47064809998847,110.48583530000178,110.48583530000178,111.00082240000484,111.05274479999207,m,0.5548944000038318,None,m,z,,,,007,001,2024-11-22_19h59.23.519,Lexical Decision Making,2024.1.5,None,2024-11-22 19h59.37.213601 +0530,
t r a i n,1.0,neutral,m,1,13,113,40,111.06798289998551,,,,,,,,,111.0532966000028,111.06798289998551,111.06798289998551,111.56622119998792,111.73332920001121,m,0.6489304999995511,None,m,m,,,,007,001,2024-11-22_19h59.23.519,Lexical Decision Making,2024.1.5,None,2024-11-22 19h59.37.213601 +0530,
p e a c e,1.0,positive,m,1,14,114,89,111.7489435999887,,,,,,,,,111.73391750000883,111.7489435999887,111.7489435999887,112.26404129998991,112.28191620000871,m,0.5303562999761198,None,m,m,,,,007,001,2024-11-22_19h59.23.519,Lexical Decision Making,2024.1.5,None,2024-11-22 19h59.37.213601 +0530,
g r u f f i l,0.0,non-word,z,1,15,115,49,112.29738360000192,,,,,,,,,112.28244419998373,112.29738360000192,112.29738360000192,112.81272170000011,112.88028489999124,z,0.5687733000086155,None,z,z,,,,007,001,2024-11-22_19h59.23.519,Lexical Decision Making,2024.1.5,None,2024-11-22 19h59.37.213601 +0530,
s m o r n,0.0,non-word,z,1,16,116,14,112.89595310000004,,,,,,,,,112.88081440000678,112.89595310000004,112.89595310000004,,113.29600100000971,m,0.3933083000010811,None,m,z,,,,007,001,2024-11-22_19h59.23.519,Lexical Decision Making,2024.1.5,None,2024-11-22 19h59.37.213601 +0530,
g r i n d l e,0.0,non-word,z,1,17,117,3,113.31132529999013,,,,,,,,,113.29669610000565,113.31132529999013,113.31132529999013,113.82639219998964,113.87745179998456,m,0.5516745999921113,None,m,z,,,,007,001,2024-11-22_19h59.23.519,Lexical Decision Making,2024.1.5,None,2024-11-22 19h59.37.213601 +0530,
d r i n t,0.0,non-word,z,1,18,118,36,113.89361749999807,,,,,,,,,113.87800450000213,113.89361749999807,113.89361749999807,114.4081831999938,115.62263510000776,z,1.7255690000019968,None,z,z,,,,007,001,2024-11-22_19h59.23.519,Lexical Decision Making,2024.1.5,None,2024-11-22 19h59.37.213601 +0530,
g r a t i t u d e,1.0,positive,m,1,19,119,41,115.63866560001043,,,,,,,,,115.62318749999395,115.63866560001043,115.63866560001043,116.15362800000003,116.15506079999614,m,0.5139878999907523,None,m,m,,,,007,001,2024-11-22_19h59.23.519,Lexical Decision Making,2024.1.5,None,2024-11-22 19h59.37.213601 +0530,
w i n d o w,1.0,neutral,m,1,20,120,80,116.1700475999969,,,,,,,,,116.15559760000906,116.1700475999969,116.1700475999969,116.66916039999342,117.05259289999958,m,0.8685302000085358,None,m,m,,,,007,001,2024-11-22_19h59.23.519,Lexical Decision Making,2024.1.5,None,2024-11-22 19h59.37.213601 +0530,
w i n d o w,1.0,neutral,m,1,21,121,68,117.06847209998523,,,,,,,,,117.05313749998459,117.06847209998523,117.06847209998523,117.58292049999,117.65047590000904,m,0.5741685000248253,None,m,m,,,,007,001,2024-11-22_19h59.23.519,Lexical Decision Making,2024.1.5,None,2024-11-22 19h59.37.213601 +0530,
s w o r p y,0.0,non-word,z,1,22,122,69,117.66591189999599,,,,,,,,,117.6512270999956,117.66591189999599,117.66591189999599,118.16562019998673,118.34940919998917,z,0.6785118000116199,None,z,z,,,,007,001,2024-11-22_19h59.23.519,Lexical Decision Making,2024.1.5,None,2024-11-22 19h59.37.213601 +0530,
z a r f e t,0.0,non-word,z,1,23,123,31,118.36431929998798,,,,,,,,,118.35019239998655,118.36431929998798,118.36431929998798,118.87925090000499,119.0468705999956,z,0.676401899982011,None,z,z,,,,007,001,2024-11-22_19h59.23.519,Lexical Decision Making,2024.1.5,None,2024-11-22 19h59.37.213601 +0530,
s a d,1.0,negative,m,1,24,124,87,119.06233310000971,,,,,,,,,119.04739630001131,119.06233310000971,119.06233310000971,119.5614418000041,120.34348589999718,m,1.2691212999925483,None,m,m,,,,007,001,2024-11-22_19h59.23.519,Lexical Decision Making,2024.1.5,None,2024-11-22 19h59.37.213601 +0530,
c a l e n d a r,1.0,neutral,m,1,25,125,86,120.35996830000659,,,,,,,,,120.34423180000158,120.35996830000659,120.35996830000659,120.87409060000209,121.0583614000061,m,0.6950892999884672,None,m,m,,,,007,001,2024-11-22_19h59.23.519,Lexical Decision Making,2024.1.5,None,2024-11-22 19h59.37.213601 +0530,
p a i n,1.0,negative,m,1,26,126,83,121.07370109998737,,,,,,,,,121.05889409998781,121.07370109998737,121.07370109998737,,121.55674770000041,m,0.4731245999864768,None,m,m,,,,007,001,2024-11-22_19h59.23.519,Lexical Decision Making,2024.1.5,None,2024-11-22 19h59.37.213601 +0530,
v o b l i t,0.0,non-word,z,1,27,127,38,121.57199279998895,,,,,,,,,121.55729609998525,121.57199279998895,121.57199279998895,122.08723959999043,122.25462669998524,z,0.6657492000085767,None,z,z,,,,007,001,2024-11-22_19h59.23.519,Lexical Decision Making,2024.1.5,None,2024-11-22 19h59.37.213601 +0530,
g l o r b y,0.0,non-word,z,1,28,128,28,122.26982600000338,,,,,,,,,122.2553545999981,122.26982600000338,122.26982600000338,122.76863859998411,122.8527604000119,z,0.5712821000197437,None,z,z,,,,007,001,2024-11-22_19h59.23.519,Lexical Decision Making,2024.1.5,None,2024-11-22 19h59.37.213601 +0530,
s m i l e,1.0,positive,m,1,29,129,92,122.86819609999657,,,,,,,,,122.85328799998388,122.86819609999657,122.86819609999657,123.36728740000399,123.95007819999591,m,1.0778925999766216,None,m,m,,,,007,001,2024-11-22_19h59.23.519,Lexical Decision Making,2024.1.5,None,2024-11-22 19h59.37.213601 +0530,
c l o u d,1.0,neutral,m,1,30,130,94,123.96611839998513,,,,,,,,,123.95060409998405,123.96611839998513,123.96611839998513,,124.44871389999753,m,0.472987799992552,None,m,m,,,,007,001,2024-11-22_19h59.23.519,Lexical Decision Making,2024.1.5,None,2024-11-22 19h59.37.213601 +0530,
m e t r o,1.0,neutral,m,1,31,131,96,124.46383279998554,,,,,,,,,124.4492554999888,124.46383279998554,124.46383279998554,,124.91384079999989,m,0.43458910001209006,None,m,m,,,,007,001,2024-11-22_19h59.23.519,Lexical Decision Making,2024.1.5,None,2024-11-22 19h59.37.213601 +0530,
w a r,1.0,negative,m,1,32,132,67,124.92963249998866,,,,,,,,,124.91436930000782,124.92963249998866,124.92963249998866,125.44454560001031,125.61246309999842,z,0.6737933999975212,None,z,m,,,,007,001,2024-11-22_19h59.23.519,Lexical Decision Making,2024.1.5,None,2024-11-22 19h59.37.213601 +0530,
c o m f o r t,1.0,positive,m,1,33,133,59,125.63060810000752,,,,,,,,,125.61312470000121,125.63060810000752,125.63060810000752,126.14274229999864,126.31023959998856,m,0.6660186999943107,None,m,m,,,,007,001,2024-11-22_19h59.23.519,Lexical Decision Making,2024.1.5,None,2024-11-22 19h59.37.213601 +0530,
f e a r f u l,1.0,negative,m,1,34,134,98,126.32566939998651,,,,,,,,,126.31094900000608,126.32566939998651,126.32566939998651,126.82429970000521,126.82554970000638,m,0.4949780000024475,None,m,m,,,,007,001,2024-11-22_19h59.23.519,Lexical Decision Making,2024.1.5,None,2024-11-22 19h59.37.213601 +0530,
b r a s k,0.0,non-word,z,1,35,135,79,126.84087590000127,,,,,,,,,126.8260781999852,126.84087590000127,126.84087590000127,127.33999549999135,127.42398379999213,z,0.5804087000142317,None,z,z,,,,007,001,2024-11-22_19h59.23.519,Lexical Decision Making,2024.1.5,None,2024-11-22 19h59.37.213601 +0530,
h a t e,1.0,negative,m,1,36,136,74,127.4392458999937,,,,,,,,,127.42451049998635,127.4392458999937,127.4392458999937,,127.9058614000096,m,0.46310329998959787,None,m,m,,,,007,001,2024-11-22_19h59.23.519,Lexical Decision Making,2024.1.5,None,2024-11-22 19h59.37.213601 +0530,
c r y,1.0,negative,m,1,37,137,61,127.92167199999676,,,,,,,,,127.90660479999497,127.92167199999676,127.92167199999676,128.43713849998312,128.47061039999244,m,0.5452167000039481,None,m,m,,,,007,001,2024-11-22_19h59.23.519,Lexical Decision Making,2024.1.5,None,2024-11-22 19h59.37.213601 +0530,
l o m e b,0.0,non-word,z,1,38,138,90,128.4866320999863,,,,,,,,,128.47113739998895,128.4866320999863,128.4866320999863,129.00226549999206,129.08610039998894,z,0.5889954000012949,None,z,z,,,,007,001,2024-11-22_19h59.23.519,Lexical Decision Making,2024.1.5,None,2024-11-22 19h59.37.213601 +0530,
c h a i r,1.0,neutral,m,1,39,139,7,129.10137089999625,,,,,,,,,129.0866451000038,129.10137089999625,129.10137089999625,129.61680260000867,129.7339454999892,m,0.618298000015784,None,m,m,,,,007,001,2024-11-22_19h59.23.519,Lexical Decision Making,2024.1.5,None,2024-11-22 19h59.37.213601 +0530,
s m o r n,0.0,non-word,z,1,40,140,51,129.74989400000777,,,,,,,,,129.73448089999147,129.74989400000777,129.74989400000777,130.2650345999864,130.2494589999842,m,0.4967500999919139,None,m,z,,,,007,001,2024-11-22_19h59.23.519,Lexical Decision Making,2024.1.5,None,2024-11-22 19h59.37.213601 +0530,
v a b l i n,0.0,non-word,z,1,41,141,1,130.2650345999864,,,,,,,,,130.24999270000262,130.2650345999864,130.2650345999864,130.78015720000258,131.2300646000076,z,0.9621370999957435,None,z,z,,,,007,001,2024-11-22_19h59.23.519,Lexical Decision Making,2024.1.5,None,2024-11-22 19h59.37.213601 +0530,
p l a r k,0.0,non-word,z,1,42,142,45,131.24573349999264,,,,,,,,,131.23060179999447,131.24573349999264,131.24573349999264,,131.72894599998835,z,0.48144020000472665,None,z,z,,,,007,001,2024-11-22_19h59.23.519,Lexical Decision Making,2024.1.5,None,2024-11-22 19h59.37.213601 +0530,
p l a r k,0.0,non-word,z,1,43,143,16,131.7439243000117,,,,,,,,,131.7294821999967,131.7439243000117,131.7439243000117,132.2429162999906,133.02503550000256,z,1.2677538999996614,None,z,z,,,,007,001,2024-11-22_19h59.23.519,Lexical Decision Making,2024.1.5,None,2024-11-22 19h59.37.213601 +0530,
d r e a m,1.0,positive,m,1,44,144,9,133.0410622000054,,,,,,,,,133.02557239998714,133.0410622000054,133.0410622000054,133.55606689999695,134.5547314999858,m,1.5007369999948423,None,m,m,,,,007,001,2024-11-22_19h59.23.519,Lexical Decision Making,2024.1.5,None,2024-11-22 19h59.37.213601 +0530,
p e a c e,1.0,positive,m,1,45,145,97,134.57031320000533,,,,,,,,,134.55527240000083,134.57031320000533,134.57031320000533,135.08472399998573,135.11945850000484,m,0.5477329000132158,None,m,m,,,,007,001,2024-11-22_19h59.23.519,Lexical Decision Making,2024.1.5,None,2024-11-22 19h59.37.213601 +0530,
e x c i t e d,1.0,positive,m,1,46,146,10,135.13487280000118,,,,,,,,,135.11998680001125,135.13487280000118,135.13487280000118,135.65039210001123,135.66825079999398,m,0.5216018999926746,None,m,m,,,,007,001,2024-11-22_19h59.23.519,Lexical Decision Making,2024.1.5,None,2024-11-22 19h59.37.213601 +0530,
d r o n t,0.0,non-word,z,1,47,147,95,135.6833992000029,,,,,,,,,135.66878919999,135.6833992000029,135.6833992000029,136.1986443999922,136.19977750000544,z,0.5138844999892171,None,z,z,,,,007,001,2024-11-22_19h59.23.519,Lexical Decision Making,2024.1.5,None,2024-11-22 19h59.37.213601 +0530,
c e l e b r a t i o n,1.0,positive,m,1,48,148,75,136.2160379999841,,,,,,,,,136.2003224999935,136.2160379999841,136.2160379999841,,136.69824379999773,m,0.4736049000057392,None,m,m,,,,007,001,2024-11-22_19h59.23.519,Lexical Decision Making,2024.1.5,None,2024-11-22 19h59.37.213601 +0530,
d e l i g h t,1.0,positive,m,1,49,149,39,136.7142642000108,,,,,,,,,136.69877429999178,136.7142642000108,136.7142642000108,137.22923090000404,137.44631329999538,m,0.7258587999967858,None,m,m,,,,007,001,2024-11-22_19h59.23.519,Lexical Decision Making,2024.1.5,None,2024-11-22 19h59.37.213601 +0530,
b l o r p,0.0,non-word,z,1,50,150,60,137.46182039999985,,,,,,,,,137.44684540000162,137.46182039999985,137.46182039999985,137.96071340001072,139.85652840000694,z,2.3800349999801256,None,z,z,,,,007,001,2024-11-22_19h59.23.519,Lexical Decision Making,2024.1.5,None,2024-11-22 19h59.37.213601 +0530,
l o v e,1.0,positive,m,1,51,151,0,139.87223310000263,,,,,,,,,139.85706969999592,139.87223310000263,139.87223310000263,,140.3556069000042,m,0.47245839997776784,None,m,m,,,,007,001,2024-11-22_19h59.23.519,Lexical Decision Making,2024.1.5,None,2024-11-22 19h59.37.213601 +0530,
m u r k l e,0.0,non-word,z,1,52,152,66,140.3707951999968,,,,,,,,,140.35613490000833,140.3707951999968,140.3707951999968,140.8860744999838,142.46608700000797,z,2.089216300024418,None,z,z,,,,007,001,2024-11-22_19h59.23.519,Lexical Decision Making,2024.1.5,None,2024-11-22 19h59.37.213601 +0530,
a p p l e,1.0,neutral,m,1,53,153,32,142.48140399999102,,,,,,,,,142.46662570000626,142.48140399999102,142.48140399999102,142.99652389998664,143.08139800000936,m,0.5967143999878317,None,m,m,,,,007,001,2024-11-22_19h59.23.519,Lexical Decision Making,2024.1.5,None,2024-11-22 19h59.37.213601 +0530,
g r i e f,1.0,negative,m,1,54,154,62,143.09624419998727,,,,,,,,,143.08215279999422,143.09624419998727,143.09624419998727,143.61149119999027,143.61262430000352,m,0.5101184999803081,None,m,m,,,,007,001,2024-11-22_19h59.23.519,Lexical Decision Making,2024.1.5,None,2024-11-22 19h59.37.213601 +0530,
c l o c k,1.0,neutral,m,1,55,155,20,143.6280664000078,,,,,,,,,143.61316959999385,143.6280664000078,143.6280664000078,144.1433493999939,144.21132729999954,m,0.5752568999887444,None,m,m,,,,007,001,2024-11-22_19h59.23.519,Lexical Decision Making,2024.1.5,None,2024-11-22 19h59.37.213601 +0530,
d r i n t,0.0,non-word,z,1,56,156,23,144.22644870000659,,,,,,,,,144.212063199986,144.22644870000659,144.22644870000659,144.741943800007,144.79242019998492,z,0.5572637000004761,None,z,z,,,,007,001,2024-11-22_19h59.23.519,Lexical Decision Making,2024.1.5,None,2024-11-22 19h59.37.213601 +0530,
g r i e f,1.0,negative,m,1,57,157,81,144.80805859999964,,,,,,,,,144.79295929998625,144.80805859999964,144.80805859999964,145.3075167000061,145.3915144999919,m,0.5714185000106227,None,m,m,,,,007,001,2024-11-22_19h59.23.519,Lexical Decision Making,2024.1.5,None,2024-11-22 19h59.37.213601 +0530,
l a w v e r,0.0,non-word,z,1,58,158,76,145.40699290001066,,,,,,,,,145.39215269999113,145.40699290001066,145.40699290001066,145.92228989998694,145.9903362999903,z,0.5734843999962322,None,z,z,,,,007,001,2024-11-22_19h59.23.519,Lexical Decision Making,2024.1.5,None,2024-11-22 19h59.37.213601 +0530,
c r i o u s,0.0,non-word,z,1,59,159,99,146.00567499999306,,,,,,,,,145.99086319998605,146.00567499999306,146.00567499999306,,146.4388021999912,m,0.42184439999982715,None,m,z,,,,007,001,2024-11-22_19h59.23.519,Lexical Decision Making,2024.1.5,None,2024-11-22 19h59.37.213601 +0530,
b o o k,1.0,neutral,m,1,60,160,22,146.4541917000024,,,,,,,,,146.43933860000107,146.4541917000024,146.4541917000024,146.96915429999353,147.38617240000167,m,0.9277542999770958,None,m,m,,,,007,001,2024-11-22_19h59.23.519,Lexical Decision Making,2024.1.5,None,2024-11-22 19h59.37.213601 +0530,
s a d n e s s,1.0,negative,m,1,61,161,88,147.40152119999402,,,,,,,,,147.38671299998532,147.40152119999402,147.40152119999402,147.9166777000064,148.58305650000693,m,1.1781309999933,None,m,m,,,,007,001,2024-11-22_19h59.23.519,Lexical Decision Making,2024.1.5,None,2024-11-22 19h59.37.213601 +0530,
l a m p,1.0,neutral,m,1,62,162,18,148.59808950001025,,,,,,,,,148.58360409998568,148.59808950001025,148.59808950001025,149.09669549998944,150.16182129998924,m,1.5556127000018023,None,m,m,,,,007,001,2024-11-22_19h59.23.519,Lexical Decision Making,2024.1.5,None,2024-11-22 19h59.37.213601 +0530,
a n g e r,1.0,negative,m,1,63,163,44,150.17730260000098,,,,,,,,,150.16234939999413,150.17730260000098,150.17730260000098,,150.59394270001212,m,0.4057747999904677,None,m,m,,,,007,001,2024-11-22_19h59.23.519,Lexical Decision Making,2024.1.5,None,2024-11-22 19h59.37.213601 +0530,
e x c i t e d,1.0,positive,m,1,64,164,72,150.6093062,,,,,,,,,150.594471599994,150.6093062,150.6093062,,151.05976519998512,m,0.4409101000055671,None,m,m,,,,007,001,2024-11-22_19h59.23.519,Lexical Decision Making,2024.1.5,None,2024-11-22 19h59.37.213601 +0530,
c l i b b e t,0.0,non-word,z,1,65,165,12,151.07490169999073,,,,,,,,,151.06030710000778,151.07490169999073,151.07490169999073,151.57387110000127,151.6408492999908,z,0.5539297999930568,None,z,z,,,,007,001,2024-11-22_19h59.23.519,Lexical Decision Making,2024.1.5,None,2024-11-22 19h59.37.213601 +0530,
c l o c k,1.0,neutral,m,1,66,166,48,151.65645559999393,,,,,,,,,151.64139350000187,151.65645559999393,151.65645559999393,152.17187980000745,152.15690500001074,m,0.4932095999829471,None,m,m,,,,007,001,2024-11-22_19h59.23.519,Lexical Decision Making,2024.1.5,None,2024-11-22 19h59.37.213601 +0530,
k i n d n e s s,1.0,positive,m,1,67,167,82,152.17187980000745,,,,,,,,,152.15744770001038,152.17187980000745,152.17187980000745,152.68672359999618,152.68842839999706,m,0.5151042999932542,None,m,m,,,,007,001,2024-11-22_19h59.23.519,Lexical Decision Making,2024.1.5,None,2024-11-22 19h59.37.213601 +0530,
l a m p,1.0,neutral,m,1,68,168,42,152.70411339998827,,,,,,,,,152.68912960001035,152.70411339998827,152.70411339998827,153.21918300000834,153.20447229998535,m,0.4826211999752559,None,m,m,,,,007,001,2024-11-22_19h59.23.519,Lexical Decision Making,2024.1.5,None,2024-11-22 19h59.37.213601 +0530,
c h e e r,1.0,positive,m,1,69,169,63,153.21918300000834,,,,,,,,,153.20500710001215,153.21918300000834,153.21918300000834,153.73428279999644,153.75236899999436,m,0.5318431000050623,None,m,m,,,,007,001,2024-11-22_19h59.23.519,Lexical Decision Making,2024.1.5,None,2024-11-22 19h59.37.213601 +0530,
c h e e r f u l,1.0,positive,m,1,70,170,43,153.7673467999848,,,,,,,,,153.75290520000271,153.7673467999848,153.7673467999848,154.2829395000008,154.3833125999954,m,0.6074630999937654,None,m,m,,,,007,001,2024-11-22_19h59.23.519,Lexical Decision Making,2024.1.5,None,2024-11-22 19h59.37.213601 +0530,
s u c c e s s,1.0,positive,m,1,71,171,35,154.39868990000105,,,,,,,,,154.38384080000105,154.39868990000105,154.39868990000105,154.89777320000576,155.03193550001015,m,0.6245116999780294,None,m,m,,,,007,001,2024-11-22_19h59.23.519,Lexical Decision Making,2024.1.5,None,2024-11-22 19h59.37.213601 +0530,
t r e n k,0.0,non-word,z,1,72,172,57,155.04718359999242,,,,,,,,,155.03248289998737,155.04718359999242,155.04718359999242,155.56300299998838,155.82985310000367,z,0.7714918999990914,None,z,z,,,,007,001,2024-11-22_19h59.23.519,Lexical Decision Making,2024.1.5,None,2024-11-22 19h59.37.213601 +0530,
t a b l e,1.0,neutral,m,1,73,173,6,155.84491980000166,,,,,,,,,155.83039369998733,155.84491980000166,155.84491980000166,156.34381769999163,156.36128809998627,m,0.5086791000212543,None,m,m,,,,007,001,2024-11-22_19h59.23.519,Lexical Decision Making,2024.1.5,None,2024-11-22 19h59.37.213601 +0530,
d r e n k,0.0,non-word,z,1,74,174,4,156.3770252999966,,,,,,,,,156.36195160000352,156.3770252999966,156.3770252999966,156.8756188999978,157.1096288000117,z,0.7288009999901988,None,z,z,,,,007,001,2024-11-22_19h59.23.519,Lexical Decision Making,2024.1.5,None,2024-11-22 19h59.37.213601 +0530,
l o s s,1.0,negative,m,1,75,175,29,157.12532170000486,,,,,,,,,157.1101645999879,157.12532170000486,157.12532170000486,157.64033150000614,157.64157549999072,m,0.5086892000108492,None,m,m,,,,007,001,2024-11-22_19h59.23.519,Lexical Decision Making,2024.1.5,None,2024-11-22 19h59.37.213601 +0530,
f e a r f u l,1.0,negative,m,1,76,176,2,157.65699660000973,,,,,,,,,157.64210530000855,157.65699660000973,157.65699660000973,158.1721014000068,158.35603470000206,m,0.6937404000200331,None,m,m,,,,007,001,2024-11-22_19h59.23.519,Lexical Decision Making,2024.1.5,None,2024-11-22 19h59.37.213601 +0530,
p e n c i l,1.0,neutral,m,1,77,177,37,158.37166879998404,,,,,,,,,158.35680079998565,158.37166879998404,158.37166879998404,158.88673999998719,159.02089779998641,m,0.6334972999757156,None,m,m,,,,007,001,2024-11-22_19h59.23.519,Lexical Decision Making,2024.1.5,None,2024-11-22 19h59.37.213601 +0530,
p l a n e t,1.0,neutral,m,1,78,178,47,159.03605029999744,,,,,,,,,159.02142400000594,159.03605029999744,159.03605029999744,159.53557619999629,159.83580810000421,m,0.7907085999904666,None,m,m,,,,007,001,2024-11-22_19h59.23.519,Lexical Decision Making,2024.1.5,None,2024-11-22 19h59.37.213601 +0530,
s t o n e,1.0,neutral,m,1,79,179,13,159.8507154000108,,,,,,,,,159.83634690000326,159.8507154000108,159.8507154000108,160.36627150001004,160.74991260000388,m,0.8907627000007778,None,m,m,,,,007,001,2024-11-22_19h59.23.519,Lexical Decision Making,2024.1.5,None,2024-11-22 19h59.37.213601 +0530,
c r i t i c i s m,1.0,negative,m,1,80,180,26,160.76490589999594,,,,,,,,,160.75054290000116,160.76490589999594,160.76490589999594,161.28096499998355,164.30711480000173,m,3.5279387999908067,None,m,m,,,,007,001,2024-11-22_19h59.23.519,Lexical Decision Making,2024.1.5,None,2024-11-22 19h59.37.213601 +0530,
h a p p y,1.0,positive,m,1,81,181,21,164.32183749999967,,,,,,,,,164.30787600000622,164.32183749999967,164.32183749999967,164.82072220000555,164.8887579999864,m,0.5608196999819484,None,m,m,,,,007,001,2024-11-22_19h59.23.519,Lexical Decision Making,2024.1.5,None,2024-11-22 19h59.37.213601 +0530,
h o p e,1.0,positive,m,1,82,182,46,164.903259099985,,,,,,,,,164.88941549998708,164.903259099985,164.903259099985,165.41887490000227,165.68598010001006,m,0.7706872999842744,None,m,m,,,,007,001,2024-11-22_19h59.23.519,Lexical Decision Making,2024.1.5,None,2024-11-22 19h59.37.213601 +0530,
m o u n t a i n,1.0,neutral,m,1,83,183,71,165.70122580000316,,,,,,,,,165.68651699999464,165.70122580000316,165.70122580000316,166.2167391999974,166.3174052000104,m,0.6030652000044938,None,m,m,,,,007,001,2024-11-22_19h59.23.519,Lexical Decision Making,2024.1.5,None,2024-11-22 19h59.37.213601 +0530,
v i c t o r y,1.0,positive,m,1,84,184,25,166.33284719998483,,,,,,,,,166.3179608999926,166.33284719998483,166.33284719998483,166.8316630999907,167.0654893000028,m,0.7221512999967672,None,m,m,,,,007,001,2024-11-22_19h59.23.519,Lexical Decision Making,2024.1.5,None,2024-11-22 19h59.37.213601 +0530,
m i s e r y,1.0,negative,m,1,85,185,34,167.08105390000856,,,,,,,,,167.0660447999835,167.08105390000856,167.08105390000856,167.59607679999317,167.59731879999163,m,0.5080093999858946,None,m,m,,,,007,001,2024-11-22_19h59.23.519,Lexical Decision Making,2024.1.5,None,2024-11-22 19h59.37.213601 +0530,
b o t t l e,1.0,neutral,m,1,86,186,58,167.61248919999343,,,,,,,,,167.59784659999423,167.61248919999343,167.61248919999343,168.1114138000121,168.2289202999964,m,0.6073496000026353,None,m,m,,,,007,001,2024-11-22_19h59.23.519,Lexical Decision Making,2024.1.5,None,2024-11-22 19h59.37.213601 +0530,
z o m p r e,0.0,non-word,z,1,87,187,73,168.24442529998487,,,,,,,,,168.22945379998419,168.24442529998487,168.24442529998487,168.7598236000049,168.84391749999486,z,0.5844063000113238,None,z,z,,,,007,001,2024-11-22_19h59.23.519,Lexical Decision Making,2024.1.5,None,2024-11-22 19h59.37.213601 +0530,
c a b l e,1.0,neutral,m,1,88,188,78,168.8595995999931,,,,,,,,,168.84445209999103,168.8595995999931,168.8595995999931,169.3749353000021,169.40911040001083,m,0.5413367000001017,None,m,m,,,,007,001,2024-11-22_19h59.23.519,Lexical Decision Making,2024.1.5,None,2024-11-22 19h59.37.213601 +0530,
t w o r i k,0.0,non-word,z,1,89,189,93,169.42475370000466,,,,,,,,,169.40991620000568,169.42475370000466,169.42475370000466,169.9396143000049,170.47275220000301,z,1.0386740999820177,None,z,z,,,,007,001,2024-11-22_19h59.23.519,Lexical Decision Making,2024.1.5,None,2024-11-22 19h59.37.213601 +0530,
s u n s h i n e,1.0,positive,m,1,90,190,30,170.48803589999443,,,,,,,,,170.47328850001213,170.48803589999443,170.48803589999443,170.98712639999576,170.97200780001003,m,0.46644519999972545,None,m,m,,,,007,001,2024-11-22_19h59.23.519,Lexical Decision Making,2024.1.5,None,2024-11-22 19h59.37.213601 +0530,
a n g e r,1.0,negative,m,1,91,191,15,170.98712639999576,,,,,,,,,170.97255269999732,170.98712639999576,170.98712639999576,171.5022966999968,171.58608849998564,m,0.5837925999949221,None,m,m,,,,007,001,2024-11-22_19h59.23.519,Lexical Decision Making,2024.1.5,None,2024-11-22 19h59.37.213601 +0530,
s o r r o w,1.0,negative,m,1,92,192,33,171.60194220000994,,,,,,,,,171.58661470000516,171.60194220000994,171.60194220000994,172.1172738999885,172.3681484000117,m,0.7636810000112746,None,m,m,,,,007,001,2024-11-22_19h59.23.519,Lexical Decision Making,2024.1.5,None,2024-11-22 19h59.37.213601 +0530,
s m i l e,1.0,positive,m,1,93,193,55,172.38315499998862,,,,,,,,,172.36868559999857,172.38315499998862,172.38315499998862,172.8820182000054,174.54512200001045,m,2.1559572000114713,None,m,m,,,,007,001,2024-11-22_19h59.23.519,Lexical Decision Making,2024.1.5,None,2024-11-22 19h59.37.213601 +0530,
s a d n e s s,1.0,negative,m,1,94,194,65,174.56045670001185,,,,,,,,,174.54575739998836,174.56045670001185,174.56045670001185,175.07593059999635,175.10994689998915,m,0.5330257999885362,None,m,m,,,,007,001,2024-11-22_19h59.23.519,Lexical Decision Making,2024.1.5,None,2024-11-22 19h59.37.213601 +0530,
g r i n d l e,0.0,non-word,z,1,95,195,54,175.12551089999033,,,,,,,,,175.11049900000216,175.12551089999033,175.12551089999033,175.64111150000826,175.82518439998967,z,0.6905814000056125,None,z,z,,,,007,001,2024-11-22_19h59.23.519,Lexical Decision Making,2024.1.5,None,2024-11-22 19h59.37.213601 +0530,
a c h i e v e m e n t,1.0,positive,m,1,96,196,27,175.8405104999838,,,,,,,,,175.8257076999871,175.8405104999838,175.8405104999838,176.35589239999535,176.43992030000663,m,0.5945923999825027,None,m,m,,,,007,001,2024-11-22_19h59.23.519,Lexical Decision Making,2024.1.5,None,2024-11-22 19h59.37.213601 +0530,
g r i n d l e,0.0,non-word,z,1,97,197,17,176.4553101999918,,,,,,,,,176.4405504000024,176.4553101999918,176.4553101999918,176.9709623999952,177.1878454000107,z,0.7310953999985941,None,z,z,,,,007,001,2024-11-22_19h59.23.519,Lexical Decision Making,2024.1.5,None,2024-11-22 19h59.37.213601 +0530,
t r a g e d y,1.0,negative,m,1,98,198,70,177.20337840000866,,,,,,,,,177.188373699988,177.20337840000866,177.20337840000866,177.71847890000208,177.8358533999999,m,0.6232865999918431,None,m,m,,,,007,001,2024-11-22_19h59.23.519,Lexical Decision Making,2024.1.5,None,2024-11-22 19h59.37.213601 +0530,
f l o r t,0.0,non-word,z,1,99,199,11,177.8517342999985,,,,,,,,,177.83638880000217,177.8517342999985,177.8517342999985,178.36682160000782,178.58386210000026,z,0.7285833999922033,None,z,z,,,,007,001,2024-11-22_19h59.23.519,Lexical Decision Making,2024.1.5,None,2024-11-22 19h59.37.213601 +0530,
s w o r p y,0.0,non-word,z,2,0,200,69,178.599790999986,,,,,,,,,178.5844068999868,178.599790999986,178.599790999986,179.11468160001095,179.34953730000416,m,0.7321239000011701,None,m,z,,,,007,001,2024-11-22_19h59.23.519,Lexical Decision Making,2024.1.5,None,2024-11-22 19h59.37.213601 +0530,
c a b l e,1.0,neutral,m,2,1,201,78,179.36423599999398,,,,,,,,,179.35050050000427,179.36423599999398,179.36423599999398,179.86303050001152,180.03031360000023,m,0.6641217000142206,None,m,m,,,,007,001,2024-11-22_19h59.23.519,Lexical Decision Making,2024.1.5,None,2024-11-22 19h59.37.213601 +0530,
s u c c e s s,1.0,positive,m,2,2,202,35,180.04587169998558,,,,,,,,,180.0308556999953,180.04587169998558,180.04587169998558,180.56077049998567,181.17773239998496,m,1.123683899990283,None,m,m,,,,007,001,2024-11-22_19h59.23.519,Lexical Decision Making,2024.1.5,None,2024-11-22 19h59.37.213601 +0530,
l a m p,1.0,neutral,m,2,3,203,42,181.19229089998407,,,,,,,,,181.17826519999653,181.19229089998407,181.19229089998407,181.70800630000303,181.87532359999022,m,0.6676229999866337,None,m,m,,,,007,001,2024-11-22_19h59.23.519,Lexical Decision Making,2024.1.5,None,2024-11-22 19h59.37.213601 +0530,
g r i n d l e,0.0,non-word,z,2,4,204,3,181.8908306999947,,,,,,,,,181.87586920001195,181.8908306999947,181.8908306999947,182.40593889998854,182.45731910000904,z,0.5494526000111364,None,z,z,,,,007,001,2024-11-22_19h59.23.519,Lexical Decision Making,2024.1.5,None,2024-11-22 19h59.37.213601 +0530,
c h e e r f u l,1.0,positive,m,2,5,205,43,182.47187380000832,,,,,,,,,182.45802150000236,182.47187380000832,182.47187380000832,182.97104060000856,183.05480799998622,m,0.5791457000013907,None,m,m,,,,007,001,2024-11-22_19h59.23.519,Lexical Decision Making,2024.1.5,None,2024-11-22 19h59.37.213601 +0530,
d r o n t,0.0,non-word,z,2,6,206,95,183.07097989998874,,,,,,,,,183.05534550000448,183.07097989998874,183.07097989998874,183.58566509999218,183.67073469999013,z,0.5941082999925129,None,z,z,,,,007,001,2024-11-22_19h59.23.519,Lexical Decision Making,2024.1.5,None,2024-11-22 19h59.37.213601 +0530,
d r e a m,1.0,positive,m,2,7,207,9,183.68555580000975,,,,,,,,,183.67127789999358,183.68555580000975,183.68555580000975,184.20369429999846,184.18530049998662,m,0.48731450000195764,None,m,m,,,,007,001,2024-11-22_19h59.23.519,Lexical Decision Making,2024.1.5,None,2024-11-22 19h59.37.213601 +0530,
p e a c e,1.0,positive,m,2,8,208,97,184.20369429999846,,,,,,,,,184.18583860000945,184.20369429999846,184.20369429999846,184.7167683999869,184.73455669998657,m,0.5177163000043947,None,m,m,,,,007,001,2024-11-22_19h59.23.519,Lexical Decision Making,2024.1.5,None,2024-11-22 19h59.37.213601 +0530,
b o o k,1.0,neutral,m,2,9,209,22,184.74932639999315,,,,,,,,,184.73509979998926,184.74932639999315,184.74932639999315,,185.19931070000166,m,0.4394497000030242,None,m,m,,,,007,001,2024-11-22_19h59.23.519,Lexical Decision Making,2024.1.5,None,2024-11-22 19h59.37.213601 +0530,
h o p e,1.0,positive,m,2,10,210,46,185.21504539999296,,,,,,,,,185.1998321999854,185.21504539999296,185.21504539999296,185.73030819999985,185.8482093999919,m,0.6321357999986503,None,m,m,,,,007,001,2024-11-22_19h59.23.519,Lexical Decision Making,2024.1.5,None,2024-11-22 19h59.37.213601 +0530,
z o m p r e,0.0,non-word,z,2,11,211,73,185.86323980000452,,,,,,,,,185.84894709999207,185.86323980000452,185.86323980000452,186.37859410000965,186.37989260000177,z,0.5015999999886844,None,z,z,,,,007,001,2024-11-22_19h59.23.519,Lexical Decision Making,2024.1.5,None,2024-11-22 19h59.37.213601 +0530,
g r i n d l e,0.0,non-word,z,2,12,212,17,186.39468789999955,,,,,,,,,186.3804361000075,186.39468789999955,186.39468789999955,186.91005340000265,186.9279048999888,z,0.5236869000073057,None,z,z,,,,007,001,2024-11-22_19h59.23.519,Lexical Decision Making,2024.1.5,None,2024-11-22 19h59.37.213601 +0530,
m i s e r y,1.0,negative,m,2,13,213,34,186.94363110000268,,,,,,,,,186.92857180000283,186.94363110000268,186.94363110000268,187.45900390000315,188.12416730000405,m,1.176172100007534,None,m,m,,,,007,001,2024-11-22_19h59.23.519,Lexical Decision Making,2024.1.5,None,2024-11-22 19h59.37.213601 +0530,
w a r,1.0,negative,m,2,14,214,67,188.1401465999952,,,,,,,,,188.12480510000023,188.1401465999952,188.1401465999952,,188.58967469999334,m,0.432880300009856,None,m,m,,,,007,001,2024-11-22_19h59.23.519,Lexical Decision Making,2024.1.5,None,2024-11-22 19h59.37.213601 +0530,
c l o c k,1.0,neutral,m,2,15,215,20,188.60544630000368,,,,,,,,,188.59020549998968,188.60544630000368,188.60544630000368,189.1205820000032,189.30463999998756,m,0.6977259000123013,None,m,m,,,,007,001,2024-11-22_19h59.23.519,Lexical Decision Making,2024.1.5,None,2024-11-22 19h59.37.213601 +0530,
p a i n,1.0,negative,m,2,16,216,83,189.31993420000072,,,,,,,,,189.3051642999926,189.31993420000072,189.31993420000072,189.81890589999966,189.83658529998502,m,0.5060671999817714,None,m,m,,,,007,001,2024-11-22_19h59.23.519,Lexical Decision Making,2024.1.5,None,2024-11-22 19h59.37.213601 +0530,
p l a r k,0.0,non-word,z,2,17,217,45,189.85219179998967,,,,,,,,,189.83711630001199,189.85219179998967,189.85219179998967,190.36763240001164,190.48520070000086,z,0.6258398000209127,None,z,z,,,,007,001,2024-11-22_19h59.23.519,Lexical Decision Making,2024.1.5,None,2024-11-22 19h59.37.213601 +0530,
d e s p a i r,1.0,negative,m,2,18,218,56,190.5003474999976,,,,,,,,,190.48572309999145,190.5003474999976,190.5003474999976,191.01605219999328,191.0003880999866,m,0.4866201000113506,None,m,m,,,,007,001,2024-11-22_19h59.23.519,Lexical Decision Making,2024.1.5,None,2024-11-22 19h59.37.213601 +0530,
k i n d n e s s,1.0,positive,m,2,19,219,82,191.01605219999328,,,,,,,,,191.0009138000023,191.01605219999328,191.01605219999328,191.53100560000166,191.54889340000227,m,0.5173516999930143,None,m,m,,,,007,001,2024-11-22_19h59.23.519,Lexical Decision Making,2024.1.5,None,2024-11-22 19h59.37.213601 +0530,
g r a t i t u d e,1.0,positive,m,2,20,220,41,191.56488369998988,,,,,,,,,191.54949080001097,191.56488369998988,191.56488369998988,,192.03151500000968,m,0.4652693000098225,None,m,m,,,,007,001,2024-11-22_19h59.23.519,Lexical Decision Making,2024.1.5,None,2024-11-22 19h59.37.213601 +0530,
b l o r p,0.0,non-word,z,2,21,221,60,192.04613080000854,,,,,,,,,192.03204190000542,192.04613080000854,192.04613080000854,192.56119380000746,192.6627589999989,z,0.603475600015372,None,z,z,,,,007,001,2024-11-22_19h59.23.519,Lexical Decision Making,2024.1.5,None,2024-11-22 19h59.37.213601 +0530,
c a l e n d a r,1.0,neutral,m,2,22,222,86,192.67766250000568,,,,,,,,,192.66329219998443,192.67766250000568,192.67766250000568,,193.14474250000785,m,0.45963080000365153,None,m,m,,,,007,001,2024-11-22_19h59.23.519,Lexical Decision Making,2024.1.5,None,2024-11-22 19h59.37.213601 +0530,
m u r k l e,0.0,non-word,z,2,23,223,66,193.15992239999468,,,,,,,,,193.14528789999895,193.15992239999468,193.15992239999468,193.67542479999247,193.67717039998388,m,0.5100552999938373,None,m,z,,,,007,001,2024-11-22_19h59.23.519,Lexical Decision Making,2024.1.5,None,2024-11-22 19h59.37.213601 +0530,
c r y,1.0,negative,m,2,24,224,61,193.69152779999422,,,,,,,,,193.67816109998967,193.69152779999422,193.69152779999422,194.18997169999056,194.30785979999928,m,0.6063831999781542,None,m,m,,,,007,001,2024-11-22_19h59.23.519,Lexical Decision Making,2024.1.5,None,2024-11-22 19h59.37.213601 +0530,
e x c i t e d,1.0,positive,m,2,25,225,10,194.32332550000865,,,,,,,,,194.30860570000368,194.32332550000865,194.32332550000865,194.8381972000061,198.994652399997,z,4.669709300011164,None,z,m,,,,007,001,2024-11-22_19h59.23.519,Lexical Decision Making,2024.1.5,None,2024-11-22 19h59.37.213601 +0530,
d r i n t,0.0,non-word,z,2,26,226,23,199.0111474999867,,,,,,,,,198.99518080000416,199.0111474999867,199.0111474999867,199.52556229999755,199.57721439999295,z,0.5594597999879625,None,z,z,,,,007,001,2024-11-22_19h59.23.519,Lexical Decision Making,2024.1.5,None,2024-11-22 19h59.37.213601 +0530,
t r a i n,1.0,neutral,m,2,27,227,40,199.59188799999538,,,,,,,,,199.5777434000047,199.59188799999538,199.59188799999538,200.09080529998755,200.14209879998816,m,0.5341567000141367,None,m,m,,,,007,001,2024-11-22_19h59.23.519,Lexical Decision Making,2024.1.5,None,2024-11-22 19h59.37.213601 +0530,
c h a i r,1.0,neutral,m,2,28,228,7,200.15754439999,,,,,,,,,200.14283359999536,200.15754439999,200.15754439999,200.6722485999926,200.67336970000179,m,0.500199900008738,None,m,m,,,,007,001,2024-11-22_19h59.23.519,Lexical Decision Making,2024.1.5,None,2024-11-22 19h59.37.213601 +0530,
b l o r p,0.0,non-word,z,2,29,229,5,200.68959789999644,,,,,,,,,200.67427709998447,200.68959789999644,200.68959789999644,201.20407820001128,201.38861769999494,z,0.6931623999844305,None,z,z,,,,007,001,2024-11-22_19h59.23.519,Lexical Decision Making,2024.1.5,None,2024-11-22 19h59.37.213601 +0530,
v o b l i t,0.0,non-word,z,2,30,230,38,201.4037004999991,,,,,,,,,201.38914310000837,201.4037004999991,201.4037004999991,201.91912089998368,201.98729570000432,z,0.5723720999958459,None,z,z,,,,007,001,2024-11-22_19h59.23.519,Lexical Decision Making,2024.1.5,None,2024-11-22 19h59.37.213601 +0530,
p l a n e t,1.0,neutral,m,2,31,231,47,202.00215970000136,,,,,,,,,201.9878209999879,202.00215970000136,202.00215970000136,202.50133780000033,202.7180737000017,m,0.7024147000047378,None,m,m,,,,007,001,2024-11-22_19h59.23.519,Lexical Decision Making,2024.1.5,None,2024-11-22 19h59.37.213601 +0530,
s o r r o w,1.0,negative,m,2,32,232,33,202.7337387999869,,,,,,,,,202.71876980000525,202.7337387999869,202.7337387999869,203.24870669998927,203.44956139998976,m,0.698529299988877,None,m,m,,,,007,001,2024-11-22_19h59.23.519,Lexical Decision Making,2024.1.5,None,2024-11-22 19h59.37.213601 +0530,
p l a r k,0.0,non-word,z,2,33,233,16,203.46513060000143,,,,,,,,,203.4501001999888,203.46513060000143,203.46513060000143,203.9803913999931,205.71016950000194,z,2.239482900011353,None,z,z,,,,007,001,2024-11-22_19h59.23.519,Lexical Decision Making,2024.1.5,None,2024-11-22 19h59.37.213601 +0530,
a c h i e v e m e n t,1.0,positive,m,2,34,234,27,205.7255112999992,,,,,,,,,205.71090579999145,205.7255112999992,205.7255112999992,206.2241495999915,207.05635870000697,m,1.3208577999903355,None,m,m,,,,007,001,2024-11-22_19h59.23.519,Lexical Decision Making,2024.1.5,None,2024-11-22 19h59.37.213601 +0530,
l o v e,1.0,positive,m,2,35,235,0,207.07200449999073,,,,,,,,,207.05688139999984,207.07200449999073,207.07200449999073,207.58704179999768,207.83726289999322,m,0.7585456000233535,None,m,m,,,,007,001,2024-11-22_19h59.23.519,Lexical Decision Making,2024.1.5,None,2024-11-22 19h59.37.213601 +0530,
c e l e b r a t i o n,1.0,positive,m,2,36,236,75,207.85303150000982,,,,,,,,,207.83778549998533,207.85303150000982,207.85303150000982,208.35205889999634,208.43592660001013,m,0.574171500018565,None,m,m,,,,007,001,2024-11-22_19h59.23.519,Lexical Decision Making,2024.1.5,None,2024-11-22 19h59.37.213601 +0530,
d r e n k,0.0,non-word,z,2,37,237,4,208.45118989999173,,,,,,,,,208.43666529998882,208.45118989999173,208.45118989999173,208.96664050000254,209.11775579999085,z,0.6540670999966096,None,z,z,,,,007,001,2024-11-22_19h59.23.519,Lexical Decision Making,2024.1.5,None,2024-11-22 19h59.37.213601 +0530,
l o m e b,0.0,non-word,z,2,38,238,90,209.13254669998423,,,,,,,,,209.11847069999203,209.13254669998423,209.13254669998423,209.64798559999326,210.04833530000178,z,0.9029600000067148,None,z,z,,,,007,001,2024-11-22_19h59.23.519,Lexical Decision Making,2024.1.5,None,2024-11-22 19h59.37.213601 +0530,
f e a r f u l,1.0,negative,m,2,39,239,98,210.0636261999898,,,,,,,,,210.0489139999845,210.0636261999898,210.0636261999898,210.5792550999904,210.67976080000517,m,0.614006200019503,None,m,m,,,,007,001,2024-11-22_19h59.23.519,Lexical Decision Making,2024.1.5,None,2024-11-22 19h59.37.213601 +0530,
v a b l i n,0.0,non-word,z,2,40,240,1,210.6955653000041,,,,,,,,,210.6802866999933,210.6955653000041,210.6955653000041,211.2104379000084,211.2620437000005,z,0.5589566999988165,None,z,z,,,,007,001,2024-11-22_19h59.23.519,Lexical Decision Making,2024.1.5,None,2024-11-22 19h59.37.213601 +0530,
v i c t o r y,1.0,positive,m,2,41,241,25,211.27662459999556,,,,,,,,,211.2625679000048,211.27662459999556,211.27662459999556,211.7756190999935,212.42615929999738,m,1.134831299976213,None,m,m,,,,007,001,2024-11-22_19h59.23.519,Lexical Decision Making,2024.1.5,None,2024-11-22 19h59.37.213601 +0530,
h a t e,1.0,negative,m,2,42,242,74,212.4402654999867,,,,,,,,,212.4266837000032,212.4402654999867,212.4402654999867,212.9555107000051,212.97382320000906,m,0.5318413999921177,None,m,m,,,,007,001,2024-11-22_19h59.23.519,Lexical Decision Making,2024.1.5,None,2024-11-22 19h59.37.213601 +0530,
p e n c i l,1.0,neutral,m,2,43,243,37,212.98885210001026,,,,,,,,,212.97435780000524,212.98885210001026,212.98885210001026,,213.40574200000265,m,0.4051786999916658,None,m,m,,,,007,001,2024-11-22_19h59.23.519,Lexical Decision Making,2024.1.5,None,2024-11-22 19h59.37.213601 +0530,
s a d n e s s,1.0,negative,m,2,44,244,88,213.4213538999902,,,,,,,,,213.40665990000707,213.4213538999902,213.4213538999902,,213.90430789999664,m,0.47100579997641034,None,m,m,,,,007,001,2024-11-22_19h59.23.519,Lexical Decision Making,2024.1.5,None,2024-11-22 19h59.37.213601 +0530,
g r i n d l e,0.0,non-word,z,2,45,245,54,213.9196660000016,,,,,,,,,213.90507710000384,213.9196660000016,213.9196660000016,214.41852050001035,214.5521993000002,z,0.6228706000256352,None,z,z,,,,007,001,2024-11-22_19h59.23.519,Lexical Decision Making,2024.1.5,None,2024-11-22 19h59.37.213601 +0530,
s a d n e s s,1.0,negative,m,2,46,246,65,214.5682273999846,,,,,,,,,214.55272279999917,214.5682273999846,214.5682273999846,215.06682700000238,216.330924400012,m,1.7481311000010464,None,m,m,,,,007,001,2024-11-22_19h59.23.519,Lexical Decision Making,2024.1.5,None,2024-11-22 19h59.37.213601 +0530,
g r i e f,1.0,negative,m,2,47,247,81,216.34657719999086,,,,,,,,,216.3314543000015,216.34657719999086,216.34657719999086,216.8617619999859,217.72715489999973,m,1.3789843000122346,None,m,m,,,,007,001,2024-11-22_19h59.23.519,Lexical Decision Making,2024.1.5,None,2024-11-22 19h59.37.213601 +0530,
w i n d o w,1.0,neutral,m,2,48,248,80,217.7424653999915,,,,,,,,,217.72787020000396,217.7424653999915,217.7424653999915,218.24093480000738,218.2424358999997,m,0.4946232000074815,None,m,m,,,,007,001,2024-11-22_19h59.23.519,Lexical Decision Making,2024.1.5,None,2024-11-22 19h59.37.213601 +0530,
s a d,1.0,negative,m,2,49,249,87,218.2577328000043,,,,,,,,,218.24295879999408,218.2577328000043,218.2577328000043,,218.65832409998984,m,0.3893934999941848,None,m,m,,,,007,001,2024-11-22_19h59.23.519,Lexical Decision Making,2024.1.5,None,2024-11-22 19h59.37.213601 +0530,
s m i l e,1.0,positive,m,2,50,250,55,218.6738081999938,,,,,,,,,218.65884769998956,218.6738081999938,218.6738081999938,,219.12312919998658,m,0.44786970000131987,None,m,m,,,,007,001,2024-11-22_19h59.23.519,Lexical Decision Making,2024.1.5,None,2024-11-22 19h59.37.213601 +0530,
s m i l e,1.0,positive,m,2,51,251,92,219.1391631999868,,,,,,,,,219.12396659998922,219.1391631999868,219.1391631999868,219.65367689999403,223.84390300000086,m,4.68899429999874,None,m,m,,,,007,001,2024-11-22_19h59.23.519,Lexical Decision Making,2024.1.5,None,2024-11-22 19h59.37.213601 +0530,
c h e e r,1.0,positive,m,2,52,252,63,223.85962999999174,,,,,,,,,223.8444387000054,223.85962999999174,223.85962999999174,224.35779300000286,224.40864899998996,m,0.5349332000187133,None,m,m,,,,007,001,2024-11-22_19h59.23.519,Lexical Decision Making,2024.1.5,None,2024-11-22 19h59.37.213601 +0530,
b o t t l e,1.0,neutral,m,2,53,253,58,224.42440180000267,,,,,,,,,224.4091810999962,224.42440180000267,224.42440180000267,,224.8737839999958,m,0.44487500001559965,None,m,m,,,,007,001,2024-11-22_19h59.23.519,Lexical Decision Making,2024.1.5,None,2024-11-22 19h59.37.213601 +0530,
b l o r p,0.0,non-word,z,2,54,254,84,224.88976260001073,,,,,,,,,224.87443219998386,224.88976260001073,224.88976260001073,225.4048560000083,225.42294230000698,z,0.5165575999999419,None,z,z,,,,007,001,2024-11-22_19h59.23.519,Lexical Decision Making,2024.1.5,None,2024-11-22 19h59.37.213601 +0530,
r e g r e t,1.0,negative,m,2,55,255,64,225.43784709999454,,,,,,,,,225.42368909998913,225.43784709999454,225.43784709999454,,225.80487849999918,m,0.3550385999842547,None,m,m,,,,007,001,2024-11-22_19h59.23.519,Lexical Decision Making,2024.1.5,None,2024-11-22 19h59.37.213601 +0530,
s m o r n,0.0,non-word,z,2,56,256,14,225.82056379999267,,,,,,,,,225.80541229998926,225.82056379999267,225.82056379999267,226.33584710001014,226.40336719999323,m,0.5670596999989357,None,m,z,,,,007,001,2024-11-22_19h59.23.519,Lexical Decision Making,2024.1.5,None,2024-11-22 19h59.37.213601 +0530,
c o m f o r t,1.0,positive,m,2,57,257,59,226.41896390001057,,,,,,,,,226.40389439999126,226.41896390001057,226.41896390001057,226.93433359998744,227.3510707000096,m,0.930760499992175,None,m,m,,,,007,001,2024-11-22_19h59.23.519,Lexical Decision Making,2024.1.5,None,2024-11-22 19h59.37.213601 +0530,
c h i n d l e,0.0,non-word,z,2,58,258,8,227.3662040999916,,,,,,,,,227.351611399994,227.3662040999916,227.3662040999916,227.86531090000062,228.01562910000212,z,0.6427246000093874,None,z,z,,,,007,001,2024-11-22_19h59.23.519,Lexical Decision Making,2024.1.5,None,2024-11-22 19h59.37.213601 +0530,
s u n s h i n e,1.0,positive,m,2,59,259,30,228.0310988999845,,,,,,,,,228.0164167000039,228.0310988999845,228.0310988999845,228.54653029999463,229.26228210001136,m,1.2154297000088263,None,m,m,,,,007,001,2024-11-22_19h59.23.519,Lexical Decision Making,2024.1.5,None,2024-11-22 19h59.37.213601 +0530,
l a m p,1.0,neutral,m,2,60,260,18,229.27762219999568,,,,,,,,,229.26280550000956,229.27762219999568,229.27762219999568,229.77659799999674,230.8249977999949,m,1.546085400012089,None,m,m,,,,007,001,2024-11-22_19h59.23.519,Lexical Decision Making,2024.1.5,None,2024-11-22 19h59.37.213601 +0530,
d r i n t,0.0,non-word,z,2,61,261,36,230.84002810000675,,,,,,,,,230.82553780000308,230.84002810000675,230.84002810000675,231.33866380000836,231.4393904999888,z,0.5870359000109602,None,z,z,,,,007,001,2024-11-22_19h59.23.519,Lexical Decision Making,2024.1.5,None,2024-11-22 19h59.37.213601 +0530,
s m o r n,0.0,non-word,z,2,62,262,51,231.4551536999934,,,,,,,,,231.43991169999936,231.4551536999934,231.4551536999934,231.9701858999906,232.27074670000002,z,0.8018675000057556,None,z,z,,,,007,001,2024-11-22_19h59.23.519,Lexical Decision Making,2024.1.5,None,2024-11-22 19h59.37.213601 +0530,
m o u n t a i n,1.0,neutral,m,2,63,263,71,232.28636729999562,,,,,,,,,232.27127520000795,232.28636729999562,232.28636729999562,232.78572449999047,233.70034330000635,m,1.403282900020713,None,m,m,,,,007,001,2024-11-22_19h59.23.519,Lexical Decision Making,2024.1.5,None,2024-11-22 19h59.37.213601 +0530,
c a r p e t,1.0,neutral,m,2,64,264,85,233.715543600003,,,,,,,,,233.7010473999835,233.715543600003,233.715543600003,234.23093920000247,235.0799854999932,m,1.3598770999815315,None,m,m,,,,007,001,2024-11-22_19h59.23.519,Lexical Decision Making,2024.1.5,None,2024-11-22 19h59.37.213601 +0530,
f a i l u r e,1.0,negative,m,2,65,265,77,235.0951298,,,,,,,,,235.08067329999176,235.0951298,235.0951298,235.61052990000462,236.31019250000827,m,1.2061265999800526,None,m,m,,,,007,001,2024-11-22_19h59.23.519,Lexical Decision Making,2024.1.5,None,2024-11-22 19h59.37.213601 +0530,
c l i b b e t,0.0,non-word,z,2,66,266,12,236.3256362999964,,,,,,,,,236.31071640001028,236.3256362999964,236.3256362999964,236.84051909999107,239.41749990000972,z,3.074856199993519,None,z,z,,,,007,001,2024-11-22_19h59.23.519,Lexical Decision Making,2024.1.5,None,2024-11-22 19h59.37.213601 +0530,
f l o r t,0.0,non-word,z,2,67,267,11,239.43321560000186,,,,,,,,,239.4180243999872,239.43321560000186,239.43321560000186,239.94887029999518,239.9823388000077,m,0.5431892000196967,None,m,z,,,,007,001,2024-11-22_19h59.23.519,Lexical Decision Making,2024.1.5,None,2024-11-22 19h59.37.213601 +0530,
p l o r,0.0,non-word,z,2,68,268,52,239.99845949999872,,,,,,,,,239.98310340000899,239.99845949999872,239.99845949999872,240.51399849998415,240.54845420000493,m,0.5383066999784205,None,m,z,,,,007,001,2024-11-22_19h59.23.519,Lexical Decision Making,2024.1.5,None,2024-11-22 19h59.37.213601 +0530,
h a p p y,1.0,positive,m,2,69,269,21,240.56352590001188,,,,,,,,,240.54899869998917,240.56352590001188,240.56352590001188,241.0791307000036,241.64571109999088,m,1.0650049999821931,None,m,m,,,,007,001,2024-11-22_19h59.23.519,Lexical Decision Making,2024.1.5,None,2024-11-22 19h59.37.213601 +0530,
c r i o u s,0.0,non-word,z,2,70,270,99,241.66039619999356,,,,,,,,,241.6464044000022,241.66039619999356,241.66039619999356,242.17583309998736,242.24341399999685,m,0.5815309999743477,None,m,z,,,,007,001,2024-11-22_19h59.23.519,Lexical Decision Making,2024.1.5,None,2024-11-22 19h59.37.213601 +0530,
t a b l e,1.0,neutral,m,2,71,271,6,242.25940400001127,,,,,,,,,242.24394069999107,242.25940400001127,242.25940400001127,242.7748423999874,242.89233149998472,z,0.6264710000250489,None,z,m,,,,007,001,2024-11-22_19h59.23.519,Lexical Decision Making,2024.1.5,None,2024-11-22 19h59.37.213601 +0530,
t r e n k,0.0,non-word,z,2,72,272,57,242.9073073999898,,,,,,,,,242.8928612000018,242.9073073999898,242.9073073999898,243.42248000000836,244.23789309998392,z,1.3242809000075795,None,z,z,,,,007,001,2024-11-22_19h59.23.519,Lexical Decision Making,2024.1.5,None,2024-11-22 19h59.37.213601 +0530,
f e a r f u l,1.0,negative,m,2,73,273,2,244.25331369999913,,,,,,,,,244.2386167999939,244.25331369999913,244.25331369999913,244.7691019999911,244.85292850001133,m,0.5894241000059992,None,m,m,,,,007,001,2024-11-22_19h59.23.519,Lexical Decision Making,2024.1.5,None,2024-11-22 19h59.37.213601 +0530,
d e l i g h t,1.0,positive,m,2,74,274,39,244.86886220000451,,,,,,,,,244.8534556000086,244.86886220000451,244.86886220000451,245.38380839998717,245.98319719999563,m,1.1107023000076879,None,m,m,,,,007,001,2024-11-22_19h59.23.519,Lexical Decision Making,2024.1.5,None,2024-11-22 19h59.37.213601 +0530,
s t o n e,1.0,neutral,m,2,75,275,13,245.9989082000102,,,,,,,,,245.98372439999366,245.9989082000102,245.9989082000102,246.51416930000414,246.53182139998535,m,0.5315522000018973,None,m,m,,,,007,001,2024-11-22_19h59.23.519,Lexical Decision Making,2024.1.5,None,2024-11-22 19h59.37.213601 +0530,
q u i b l e n,0.0,non-word,z,2,76,276,91,246.5472017999855,,,,,,,,,246.53235289998702,246.5472017999855,246.5472017999855,247.06301919999532,247.1642198000045,z,0.6157722000207286,None,z,z,,,,007,001,2024-11-22_19h59.23.519,Lexical Decision Making,2024.1.5,None,2024-11-22 19h59.37.213601 +0530,
b r a s k,0.0,non-word,z,2,77,277,79,247.1783860999858,,,,,,,,,247.1647481000109,247.1783860999858,247.1783860999858,247.6771858999855,247.74574529999518,z,0.5662070000253152,None,z,z,,,,007,001,2024-11-22_19h59.23.519,Lexical Decision Making,2024.1.5,None,2024-11-22 19h59.37.213601 +0530,
g r u f f i l,0.0,non-word,z,2,78,278,49,247.76040219998686,,,,,,,,,247.74628329998814,247.76040219998686,247.76040219998686,,248.16090930000064,z,0.39784750001854263,None,z,z,,,,007,001,2024-11-22_19h59.23.519,Lexical Decision Making,2024.1.5,None,2024-11-22 19h59.37.213601 +0530,
t r a g e d y,1.0,negative,m,2,79,279,70,248.1760312000115,,,,,,,,,248.16143549999106,248.1760312000115,248.1760312000115,248.67508739998448,248.67601729999296,z,0.48901109999860637,None,z,m,,,,007,001,2024-11-22_19h59.23.519,Lexical Decision Making,2024.1.5,None,2024-11-22 19h59.37.213601 +0530,
j o y f u l,1.0,positive,m,2,80,280,19,248.69124079999165,,,,,,,,,248.676556099992,248.69124079999165,248.69124079999165,249.1901216999977,249.27367210001103,m,0.5693277000100352,None,m,m,,,,007,001,2024-11-22_19h59.23.519,Lexical Decision Making,2024.1.5,None,2024-11-22 19h59.37.213601 +0530,
l a w v e r,0.0,non-word,z,2,81,281,76,249.2893985999981,,,,,,,,,249.27421279999544,249.2893985999981,249.2893985999981,249.78818810000666,250.7702347000013,z,1.4756037000042852,None,z,z,,,,007,001,2024-11-22_19h59.23.519,Lexical Decision Making,2024.1.5,None,2024-11-22 19h59.37.213601 +0530,
p e n c i l,1.0,neutral,m,2,82,282,24,250.7854054000054,,,,,,,,,250.7707769999979,250.7854054000054,250.7854054000054,251.30063979999977,251.33521779999137,m,0.5430138000228908,None,m,m,,,,007,001,2024-11-22_19h59.23.519,Lexical Decision Making,2024.1.5,None,2024-11-22 19h59.37.213601 +0530,
c l o c k,1.0,neutral,m,2,83,283,48,251.35064670001157,,,,,,,,,251.3357612999971,251.35064670001157,251.35064670001157,251.84957180000492,252.00037369999336,m,0.6330790999927558,None,m,m,,,,007,001,2024-11-22_19h59.23.519,Lexical Decision Making,2024.1.5,None,2024-11-22 19h59.37.213601 +0530,
w i n d o w,1.0,neutral,m,2,84,284,68,252.01560799998697,,,,,,,,,252.00107560001197,252.01560799998697,252.01560799998697,252.53109299999778,252.51571069998317,m,0.4915853000129573,None,m,m,,,,007,001,2024-11-22_19h59.23.519,Lexical Decision Making,2024.1.5,None,2024-11-22 19h59.37.213601 +0530,
m e t r o,1.0,neutral,m,2,85,285,96,252.53109299999778,,,,,,,,,252.5164528999885,252.53109299999778,252.53109299999778,,252.9822632999858,m,0.4493615000101272,None,m,m,,,,007,001,2024-11-22_19h59.23.519,Lexical Decision Making,2024.1.5,None,2024-11-22 19h59.37.213601 +0530,
p e a c e,1.0,positive,m,2,86,286,89,252.99627030000556,,,,,,,,,252.98295470001176,252.99627030000556,252.99627030000556,,253.46242329999222,m,0.46081299998331815,None,m,m,,,,007,001,2024-11-22_19h59.23.519,Lexical Decision Making,2024.1.5,None,2024-11-22 19h59.37.213601 +0530,
a n g e r,1.0,negative,m,2,87,287,15,253.4783683999849,,,,,,,,,253.46295829999144,253.4783683999849,253.4783683999849,253.99344039999414,254.2938492000103,m,0.8018244999984745,None,m,m,,,,007,001,2024-11-22_19h59.23.519,Lexical Decision Making,2024.1.5,None,2024-11-22 19h59.37.213601 +0530,
a n g e r,1.0,negative,m,2,88,288,44,254.30916699999943,,,,,,,,,254.29447210000944,254.30916699999943,254.30916699999943,254.82500179999624,257.2358646999928,m,2.924117099988507,None,m,m,,,,007,001,2024-11-22_19h59.23.519,Lexical Decision Making,2024.1.5,None,2024-11-22 19h59.37.213601 +0530,
z a r f e t,0.0,non-word,z,2,89,289,31,257.2509863000014,,,,,,,,,257.2363960999937,257.2509863000014,257.2509863000014,257.7664800999919,258.2336813999864,z,0.9732540000113659,None,z,z,,,,007,001,2024-11-22_19h59.23.519,Lexical Decision Making,2024.1.5,None,2024-11-22 19h59.37.213601 +0530,
a p p l e,1.0,neutral,m,2,90,290,32,258.24902580000344,,,,,,,,,258.23440200000186,258.24902580000344,258.24902580000344,258.76385719998507,260.0450875000097,m,1.7890706000034697,None,m,m,,,,007,001,2024-11-22_19h59.23.519,Lexical Decision Making,2024.1.5,None,2024-11-22 19h59.37.213601 +0530,
g r i e f,1.0,negative,m,2,91,291,50,260.06091929998365,,,,,,,,,260.04563529998995,260.06091929998365,260.06091929998365,260.57589619999635,260.5771800999937,m,0.5035880999930669,None,m,m,,,,007,001,2024-11-22_19h59.23.519,Lexical Decision Making,2024.1.5,None,2024-11-22 19h59.37.213601 +0530,
l o s s,1.0,negative,m,2,92,292,29,260.5928867000039,,,,,,,,,260.578096799989,260.5928867000039,260.5928867000039,261.1077292000118,265.2808326999948,m,4.686190100008389,None,m,m,,,,007,001,2024-11-22_19h59.23.519,Lexical Decision Making,2024.1.5,None,2024-11-22 19h59.37.213601 +0530,
e x c i t e d,1.0,positive,m,2,93,293,72,265.29590279998956,,,,,,,,,265.28147829999216,265.29590279998956,265.29590279998956,265.79452590001165,265.8793972999847,m,0.5818820999993477,None,m,m,,,,007,001,2024-11-22_19h59.23.519,Lexical Decision Making,2024.1.5,None,2024-11-22 19h59.37.213601 +0530,
g r i e f,1.0,negative,m,2,94,294,62,265.8941341000027,,,,,,,,,265.87993609998375,265.8941341000027,265.8941341000027,,266.3443580000021,m,0.4484420999942813,None,m,m,,,,007,001,2024-11-22_19h59.23.519,Lexical Decision Making,2024.1.5,None,2024-11-22 19h59.37.213601 +0530,
c l o u d,1.0,neutral,m,2,95,295,94,266.35966149999877,,,,,,,,,266.3450120000052,266.35966149999877,266.35966149999877,266.8752206999925,267.32472830000916,z,0.9508732999966014,None,z,m,,,,007,001,2024-11-22_19h59.23.519,Lexical Decision Making,2024.1.5,None,2024-11-22 19h59.37.213601 +0530,
t w o r i k,0.0,non-word,z,2,96,296,93,267.3404242999968,,,,,,,,,267.3252794999862,267.3404242999968,267.3404242999968,267.85551960000885,268.4549624999927,z,1.098872600006871,None,z,z,,,,007,001,2024-11-22_19h59.23.519,Lexical Decision Making,2024.1.5,None,2024-11-22 19h59.37.213601 +0530,
c r i t i c i s m,1.0,negative,m,2,97,297,26,268.4707297999994,,,,,,,,,268.4555151000095,268.4707297999994,268.4707297999994,268.96959329998936,268.9707620999834,m,0.48558320000302047,None,m,m,,,,007,001,2024-11-22_19h59.23.519,Lexical Decision Making,2024.1.5,None,2024-11-22 19h59.37.213601 +0530,
g l o r b y,0.0,non-word,z,2,98,298,28,268.9857105000119,,,,,,,,,268.9713078000059,268.9857105000119,268.9857105000119,269.5010152999894,269.686094100005,z,0.6920857000222895,None,z,z,,,,007,001,2024-11-22_19h59.23.519,Lexical Decision Making,2024.1.5,None,2024-11-22 19h59.37.213601 +0530,
s m a g l e,0.0,non-word,z,2,99,299,53,269.70043850000366,,,,,,,,,269.6866332000063,269.70043850000366,269.70043850000366,270.2155141000112,270.2836289999832,z,0.5689523000037298,None,z,z,,,,007,001,2024-11-22_19h59.23.519,Lexical Decision Making,2024.1.5,None,2024-11-22 19h59.37.213601 +0530,
w a r,1.0,negative,m,3,0,300,67,270.29958580000675,,,,,,,,,270.28416499999,270.29958580000675,270.29958580000675,270.81390139998985,270.9318684999889,m,0.6225309000001289,None,m,m,,,,007,001,2024-11-22_19h59.23.519,Lexical Decision Making,2024.1.5,None,2024-11-22 19h59.37.213601 +0530,
d e l i g h t,1.0,positive,m,3,1,301,39,270.9472609999939,,,,,,,,,270.93247390000033,270.9472609999939,270.9472609999939,271.4628579999844,271.44960130000254,m,0.4907877999939956,None,m,m,,,,007,001,2024-11-22_19h59.23.519,Lexical Decision Making,2024.1.5,None,2024-11-22 19h59.37.213601 +0530,
g r i e f,1.0,negative,m,3,2,302,81,271.4628579999844,,,,,,,,,271.45014559998526,271.4628579999844,271.4628579999844,271.97742059998563,272.0125759000075,m,0.5333873000054155,None,m,m,,,,007,001,2024-11-22_19h59.23.519,Lexical Decision Making,2024.1.5,None,2024-11-22 19h59.37.213601 +0530,
d r i n t,0.0,non-word,z,3,3,303,36,272.0275618000014,,,,,,,,,272.0132959999901,272.0275618000014,272.0275618000014,272.54308500001207,272.62715710001066,z,0.5833044000028167,None,z,z,,,,007,001,2024-11-22_19h59.23.519,Lexical Decision Making,2024.1.5,None,2024-11-22 19h59.37.213601 +0530,
m i s e r y,1.0,negative,m,3,4,304,34,272.64248799998313,,,,,,,,,272.6280795999919,272.64248799998313,272.64248799998313,,273.1255822000094,m,0.46873509997385554,None,m,m,,,,007,001,2024-11-22_19h59.23.519,Lexical Decision Making,2024.1.5,None,2024-11-22 19h59.37.213601 +0530,
c o m f o r t,1.0,positive,m,3,5,305,59,273.1412428999902,,,,,,,,,273.12612430000445,273.1412428999902,273.1412428999902,,273.591339400009,m,0.4363399999856483,None,m,m,,,,007,001,2024-11-22_19h59.23.519,Lexical Decision Making,2024.1.5,None,2024-11-22 19h59.37.213601 +0530,
w i n d o w,1.0,neutral,m,3,6,306,80,273.6069565000071,,,,,,,,,273.59187689999817,273.6069565000071,273.6069565000071,274.1222051999939,274.239178799995,m,0.6258379000064451,None,m,m,,,,007,001,2024-11-22_19h59.23.519,Lexical Decision Making,2024.1.5,None,2024-11-22 19h59.37.213601 +0530,
c a r p e t,1.0,neutral,m,3,7,307,85,274.2547435000015,,,,,,,,,274.2397132999904,274.2547435000015,274.2547435000015,,274.7212509000092,m,0.45133420001366176,None,m,m,,,,007,001,2024-11-22_19h59.23.519,Lexical Decision Making,2024.1.5,None,2024-11-22 19h59.37.213601 +0530,
h a p p y,1.0,positive,m,3,8,308,21,274.73703590000514,,,,,,,,,274.72177979999105,274.73703590000514,274.73703590000514,,275.1701893999998,m,0.43159630001173355,None,m,m,,,,007,001,2024-11-22_19h59.23.519,Lexical Decision Making,2024.1.5,None,2024-11-22 19h59.37.213601 +0530,
s m o r n,0.0,non-word,z,3,9,309,14,275.1853812999907,,,,,,,,,275.1707236999937,275.1853812999907,275.1853812999907,275.6847973999975,275.7688766999927,z,0.5819523000100162,None,z,z,,,,007,001,2024-11-22_19h59.23.519,Lexical Decision Making,2024.1.5,None,2024-11-22 19h59.37.213601 +0530,
v i c t o r y,1.0,positive,m,3,10,310,25,275.7843411999929,,,,,,,,,275.7694910999853,275.7843411999929,275.7843411999929,,276.23387920000823,m,0.44630399998277426,None,m,m,,,,007,001,2024-11-22_19h59.23.519,Lexical Decision Making,2024.1.5,None,2024-11-22 19h59.37.213601 +0530,
e x c i t e d,1.0,positive,m,3,11,311,10,276.2493717999896,,,,,,,,,276.2344047999941,276.2493717999896,276.2493717999896,,276.6988572999835,m,0.4455399999860674,None,m,m,,,,007,001,2024-11-22_19h59.23.519,Lexical Decision Making,2024.1.5,None,2024-11-22 19h59.37.213601 +0530,
v a b l i n,0.0,non-word,z,3,12,312,1,276.71462340001017,,,,,,,,,276.69939480000176,276.71462340001017,276.71462340001017,277.2336997000093,277.34745149998344,z,0.6228756999771576,None,z,z,,,,007,001,2024-11-22_19h59.23.519,Lexical Decision Making,2024.1.5,None,2024-11-22 19h59.37.213601 +0530,
b l o r p,0.0,non-word,z,3,13,313,60,277.3631138000055,,,,,,,,,277.3479769999976,277.3631138000055,277.3631138000055,,277.8129768999934,m,0.4399406000156887,None,m,z,,,,007,001,2024-11-22_19h59.23.519,Lexical Decision Making,2024.1.5,None,2024-11-22 19h59.37.213601 +0530,
c a l e n d a r,1.0,neutral,m,3,14,314,86,277.82828449999215,,,,,,,,,277.81351639999775,277.82828449999215,277.82828449999215,278.34425180000835,278.4607778000063,m,0.6302938000007998,None,m,m,,,,007,001,2024-11-22_19h59.23.519,Lexical Decision Making,2024.1.5,None,2024-11-22 19h59.37.213601 +0530,
c l o u d,1.0,neutral,m,3,15,315,94,278.47623410000233,,,,,,,,,278.4613040999975,278.47623410000233,278.47623410000233,278.99250480000046,279.02729679999175,z,0.5416127999778837,None,z,m,,,,007,001,2024-11-22_19h59.23.519,Lexical Decision Making,2024.1.5,None,2024-11-22 19h59.37.213601 +0530,
q u i b l e n,0.0,non-word,z,3,16,316,91,279.0422100999858,,,,,,,,,279.0278166999924,279.0422100999858,279.0422100999858,279.5570485999924,280.4391170000017,z,1.3801894999924116,None,z,z,,,,007,001,2024-11-22_19h59.23.519,Lexical Decision Making,2024.1.5,None,2024-11-22 19h59.37.213601 +0530,
b o o k,1.0,neutral,m,3,17,317,22,280.45489709998947,,,,,,,,,280.43965039998875,280.45489709998947,280.45489709998947,280.9695742999902,281.0206087999977,m,0.5614251999941189,None,m,m,,,,007,001,2024-11-22_19h59.23.519,Lexical Decision Making,2024.1.5,None,2024-11-22 19h59.37.213601 +0530,
g r i n d l e,0.0,non-word,z,3,18,318,17,281.0365560000064,,,,,,,,,281.02113469998585,281.0365560000064,281.0365560000064,281.55164940000395,281.70243669999763,z,0.6546647000068333,None,z,z,,,,007,001,2024-11-22_19h59.23.519,Lexical Decision Making,2024.1.5,None,2024-11-22 19h59.37.213601 +0530,
p a i n,1.0,negative,m,3,19,319,83,281.7178589999967,,,,,,,,,281.703096000012,281.7178589999967,281.7178589999967,,282.18423630000325,m,0.4542533000058029,None,m,m,,,,007,001,2024-11-22_19h59.23.519,Lexical Decision Making,2024.1.5,None,2024-11-22 19h59.37.213601 +0530,
b l o r p,0.0,non-word,z,3,20,320,5,282.1995389999938,,,,,,,,,282.1847740999947,282.1995389999938,282.1995389999938,282.71523139998317,282.815340000001,z,0.6034711000102106,None,z,z,,,,007,001,2024-11-22_19h59.23.519,Lexical Decision Making,2024.1.5,None,2024-11-22 19h59.37.213601 +0530,
d r i n t,0.0,non-word,z,3,21,321,23,282.8311461999838,,,,,,,,,282.8158786999993,282.8311461999838,282.8311461999838,283.3465178000042,283.4308969999838,z,0.5841240999870934,None,z,z,,,,007,001,2024-11-22_19h59.23.519,Lexical Decision Making,2024.1.5,None,2024-11-22 19h59.37.213601 +0530,
z a r f e t,0.0,non-word,z,3,22,322,31,283.4461359999841,,,,,,,,,283.43161619998864,283.4461359999841,283.4461359999841,,283.89639809998334,z,0.44098179999855347,None,z,z,,,,007,001,2024-11-22_19h59.23.519,Lexical Decision Making,2024.1.5,None,2024-11-22 19h59.37.213601 +0530,
c l o c k,1.0,neutral,m,3,23,323,48,283.91166710000834,,,,,,,,,283.89693210000405,283.91166710000834,283.91166710000834,284.41017399998964,284.46163899998646,m,0.5440531000203919,None,m,m,,,,007,001,2024-11-22_19h59.23.519,Lexical Decision Making,2024.1.5,None,2024-11-22 19h59.37.213601 +0530,
e x c i t e d,1.0,positive,m,3,24,324,72,284.47713049998856,,,,,,,,,284.4621787999931,284.47713049998856,284.47713049998856,,284.9435805999965,m,0.45888369999011047,None,m,m,,,,007,001,2024-11-22_19h59.23.519,Lexical Decision Making,2024.1.5,None,2024-11-22 19h59.37.213601 +0530,
l a m p,1.0,neutral,m,3,25,325,18,284.9590358999849,,,,,,,,,284.94412219998776,284.9590358999849,284.9590358999849,,285.4253361999872,m,0.4574455000110902,None,m,m,,,,007,001,2024-11-22_19h59.23.519,Lexical Decision Making,2024.1.5,None,2024-11-22 19h59.37.213601 +0530,
c l i b b e t,0.0,non-word,z,3,26,326,12,285.4414536000113,,,,,,,,,285.4258586000069,285.4414536000113,285.4414536000113,285.9560821999912,285.9735783000069,z,0.5258795999980066,None,z,z,,,,007,001,2024-11-22_19h59.23.519,Lexical Decision Making,2024.1.5,None,2024-11-22 19h59.37.213601 +0530,
c h a i r,1.0,neutral,m,3,27,327,7,285.98947999998927,,,,,,,,,285.97410160000436,285.98947999998927,285.98947999998927,,286.38983989998815,m,0.393732500000624,None,m,m,,,,007,001,2024-11-22_19h59.23.519,Lexical Decision Making,2024.1.5,None,2024-11-22 19h59.37.213601 +0530,
b l o r p,0.0,non-word,z,3,28,328,84,286.40471460000845,,,,,,,,,286.3903627000109,286.40471460000845,286.40471460000845,286.9037265999941,286.9380351,z,0.527401600003941,None,z,z,,,,007,001,2024-11-22_19h59.23.519,Lexical Decision Making,2024.1.5,None,2024-11-22 19h59.37.213601 +0530,
h a t e,1.0,negative,m,3,29,329,74,286.95430029998533,,,,,,,,,286.9385598000081,286.95430029998533,286.95430029998533,,287.42013879999286,m,0.45979049999732524,None,m,m,,,,007,001,2024-11-22_19h59.23.519,Lexical Decision Making,2024.1.5,None,2024-11-22 19h59.37.213601 +0530,
t a b l e,1.0,neutral,m,3,30,330,6,287.43626439999207,,,,,,,,,287.4208052000031,287.43626439999207,287.43626439999207,,287.9021895999904,z,0.4584024999930989,None,z,m,,,,007,001,2024-11-22_19h59.23.519,Lexical Decision Making,2024.1.5,None,2024-11-22 19h59.37.213601 +0530,
p e a c e,1.0,positive,m,3,31,331,97,287.9176654999901,,,,,,,,,287.90282849999494,287.9176654999901,287.9176654999901,288.41563470000983,289.3682267999975,m,1.4462847000104375,None,m,m,,,,007,001,2024-11-22_19h59.23.519,Lexical Decision Making,2024.1.5,None,2024-11-22 19h59.37.213601 +0530,
p l a n e t,1.0,neutral,m,3,32,332,47,289.38018239999656,,,,,,,,,289.3688376999926,289.38018239999656,289.38018239999656,289.89519189999555,289.9462252999947,m,0.5524715000065044,None,m,m,,,,007,001,2024-11-22_19h59.23.519,Lexical Decision Making,2024.1.5,None,2024-11-22 19h59.37.213601 +0530,
l o s s,1.0,negative,m,3,33,333,29,289.9616082999855,,,,,,,,,289.94677889999,289.9616082999855,289.9616082999855,290.4775346000097,290.66140240000095,m,0.6962857999897096,None,m,m,,,,007,001,2024-11-22_19h59.23.519,Lexical Decision Making,2024.1.5,None,2024-11-22 19h59.37.213601 +0530,
g r a t i t u d e,1.0,positive,m,3,34,334,41,290.67674510000506,,,,,,,,,290.6620510999928,290.67674510000506,290.67674510000506,291.19255690000136,291.9740307999891,m,1.2801951000001281,None,m,m,,,,007,001,2024-11-22_19h59.23.519,Lexical Decision Making,2024.1.5,None,2024-11-22 19h59.37.213601 +0530,
w i n d o w,1.0,neutral,m,3,35,335,68,291.9896230000013,,,,,,,,,291.9745675000013,291.9896230000013,291.9896230000013,,292.4730985999922,m,0.47241200000280514,None,m,m,,,,007,001,2024-11-22_19h59.23.519,Lexical Decision Making,2024.1.5,None,2024-11-22 19h59.37.213601 +0530,
c h e e r f u l,1.0,positive,m,3,36,336,43,292.48851840000134,,,,,,,,,292.4736597999872,292.48851840000134,292.48851840000134,,292.93861889999243,m,0.44851690001087263,None,m,m,,,,007,001,2024-11-22_19h59.23.519,Lexical Decision Making,2024.1.5,None,2024-11-22 19h59.37.213601 +0530,
s a d,1.0,negative,m,3,37,337,87,292.9537272999878,,,,,,,,,292.9391476000019,292.9537272999878,292.9537272999878,,293.3706794999889,m,0.41457910000463016,None,m,m,,,,007,001,2024-11-22_19h59.23.519,Lexical Decision Making,2024.1.5,None,2024-11-22 19h59.37.213601 +0530,
l a m p,1.0,neutral,m,3,38,338,42,293.38571269999375,,,,,,,,,293.37128250001115,293.38571269999375,293.38571269999375,,293.8355184000102,m,0.43283530001644976,None,m,m,,,,007,001,2024-11-22_19h59.23.519,Lexical Decision Making,2024.1.5,None,2024-11-22 19h59.37.213601 +0530,
g r i e f,1.0,negative,m,3,39,339,50,293.8511886000051,,,,,,,,,293.83604759999434,293.8511886000051,293.8511886000051,294.3665757999988,294.387526800012,m,0.528576000011526,None,m,m,,,,007,001,2024-11-22_19h59.23.519,Lexical Decision Making,2024.1.5,None,2024-11-22 19h59.37.213601 +0530,
m u r k l e,0.0,non-word,z,3,40,340,66,294.39939539998886,,,,,,,,,294.38807330001146,294.39939539998886,294.39939539998886,294.8985294000013,295.16580379998777,z,0.7505961999995634,None,z,z,,,,007,001,2024-11-22_19h59.23.519,Lexical Decision Making,2024.1.5,None,2024-11-22 19h59.37.213601 +0530,
