Stimulus,IsWord,Valence,CorrectResponse,trials.thisRepN,trials.thisTrialN,trials.thisN,trials.thisIndex,thisRow.t,notes,instructions.started,instructionsText.started,key_resp_2.started,instructions.stopped,key_resp_2.keys,key_resp_2.rt,key_resp_2.duration,trial.started,text.started,key_resp.started,text.stopped,trial.stopped,key_resp.keys,key_resp.rt,key_resp.duration,ParticipantResponse,CorrectResponse,End.started,text_z.started,End.stopped,participant,session,date,expName,psychopyVersion,frameRate,expStart,
,,,,,,,,,,0.020150300002569566,0.03660710000258405,0.03660710000258405,59.258872400001565,space,59.20915099999911,None,,,,,,,,,,,,,,06,001,2024-11-20_23h46.44.272,Lexical Decision Making,2024.1.5,None,2024-11-20 23h46.53.927116 +0530,
d r i n t,0.0,non-word,z,0,0,0,36,59.29109370000151,,,,,,,,,59.28016340000249,59.29109370000151,59.29109370000151,60.30493810000189,61.76886190000005,z,2.473351199998433,None,z,z,,,,06,001,2024-11-20_23h46.44.272,Lexical Decision Making,2024.1.5,None,2024-11-20 23h46.53.927116 +0530,
c o m f o r t,1.0,positive,m,0,1,1,59,61.78396570000041,,,,,,,,,61.77001640000162,61.78396570000041,61.78396570000041,62.79839090000314,62.79961000000185,m,1.0000180000024557,None,m,m,,,,06,001,2024-11-20_23h46.44.272,Lexical Decision Making,2024.1.5,None,2024-11-20 23h46.53.927116 +0530,
w a r,1.0,negative,m,0,2,2,67,62.81490280000071,,,,,,,,,62.800147200003266,62.81490280000071,62.81490280000071,,63.63093170000138,m,0.7984853000016301,None,m,m,,,,06,001,2024-11-20_23h46.44.272,Lexical Decision Making,2024.1.5,None,2024-11-20 23h46.53.927116 +0530,
f e a r f u l,1.0,negative,m,0,3,3,2,63.64591620000283,,,,,,,,,63.63147910000043,63.64591620000283,63.64591620000283,,64.52804300000207,m,0.8781038000015542,None,m,m,,,,06,001,2024-11-20_23h46.44.272,Lexical Decision Making,2024.1.5,None,2024-11-20 23h46.53.927116 +0530,
d e l i g h t,1.0,positive,m,0,4,4,39,64.54327920000287,,,,,,,,,64.52859020000324,64.54327920000287,64.54327920000287,,65.39258760000303,m,0.8433752000019012,None,m,m,,,,06,001,2024-11-20_23h46.44.272,Lexical Decision Making,2024.1.5,None,2024-11-20 23h46.53.927116 +0530,
d e s p a i r,1.0,negative,m,0,5,5,56,65.40802520000216,,,,,,,,,65.3931169000025,65.40802520000216,65.40802520000216,,66.04048909999983,m,0.6203908999996202,None,m,m,,,,06,001,2024-11-20_23h46.44.272,Lexical Decision Making,2024.1.5,None,2024-11-20 23h46.53.927116 +0530,
t a b l e,1.0,neutral,m,0,6,6,6,66.05611910000152,,,,,,,,,66.04104619999998,66.05611910000152,66.05611910000152,,66.57195120000324,m,0.5133697999990545,None,m,m,,,,06,001,2024-11-20_23h46.44.272,Lexical Decision Making,2024.1.5,None,2024-11-20 23h46.53.927116 +0530,
d r o n t,0.0,non-word,z,0,7,7,95,66.58791000000201,,,,,,,,,66.57253140000103,66.58791000000201,66.58791000000201,,67.22095190000255,z,0.6174658000018098,None,z,z,,,,06,001,2024-11-20_23h46.44.272,Lexical Decision Making,2024.1.5,None,2024-11-20 23h46.53.927116 +0530,
h o p e,1.0,positive,m,0,8,8,46,67.23608530000274,,,,,,,,,67.22177840000222,67.23608530000274,67.23608530000274,,68.00203780000083,m,0.7570656000025338,None,m,m,,,,06,001,2024-11-20_23h46.44.272,Lexical Decision Making,2024.1.5,None,2024-11-20 23h46.53.927116 +0530,
m u r k l e,0.0,non-word,z,0,9,9,66,68.01755240000057,,,,,,,,,68.00259940000251,68.01755240000057,68.01755240000057,,68.61715050000203,z,0.582254600001761,None,z,z,,,,06,001,2024-11-20_23h46.44.272,Lexical Decision Making,2024.1.5,None,2024-11-20 23h46.53.927116 +0530,
w i n d o w,1.0,neutral,m,0,10,10,80,68.63293230000272,,,,,,,,,68.61774450000303,68.63293230000272,68.63293230000272,,69.26492770000186,m,0.6229096999995818,None,m,m,,,,06,001,2024-11-20_23h46.44.272,Lexical Decision Making,2024.1.5,None,2024-11-20 23h46.53.927116 +0530,
p a i n,1.0,negative,m,0,11,11,83,69.28044370000134,,,,,,,,,69.26545940000142,69.28044370000134,69.28044370000134,,70.06255580000288,m,0.7770850000015344,None,m,m,,,,06,001,2024-11-20_23h46.44.272,Lexical Decision Making,2024.1.5,None,2024-11-20 23h46.53.927116 +0530,
s o r r o w,1.0,negative,m,0,12,12,33,70.07876360000228,,,,,,,,,70.06313020000016,70.07876360000228,70.07876360000228,,70.7281346000018,m,0.6409144000026572,None,m,m,,,,06,001,2024-11-20_23h46.44.272,Lexical Decision Making,2024.1.5,None,2024-11-20 23h46.53.927116 +0530,
l o m e b,0.0,non-word,z,0,13,13,90,70.74308350000138,,,,,,,,,70.7287533000017,70.74308350000138,70.74308350000138,,71.47540600000139,z,0.7299839999977848,None,z,z,,,,06,001,2024-11-20_23h46.44.272,Lexical Decision Making,2024.1.5,None,2024-11-20 23h46.53.927116 +0530,
p l o r,0.0,non-word,z,0,14,14,52,71.4910060000002,,,,,,,,,71.47594340000069,71.4910060000002,71.4910060000002,,72.25655850000112,z,0.761614399998507,None,z,z,,,,06,001,2024-11-20_23h46.44.272,Lexical Decision Making,2024.1.5,None,2024-11-20 23h46.53.927116 +0530,
g r i n d l e,0.0,non-word,z,0,15,15,54,72.27216380000027,,,,,,,,,72.2574964000014,72.27216380000027,72.27216380000027,,73.10481290000098,z,0.8283049999990908,None,z,z,,,,06,001,2024-11-20_23h46.44.272,Lexical Decision Making,2024.1.5,None,2024-11-20 23h46.53.927116 +0530,
g l o r b y,0.0,non-word,z,0,16,16,28,73.11995139999999,,,,,,,,,73.10535200000231,73.11995139999999,73.11995139999999,,74.10216430000219,z,0.9660889000006136,None,z,z,,,,06,001,2024-11-20_23h46.44.272,Lexical Decision Making,2024.1.5,None,2024-11-20 23h46.53.927116 +0530,
g r i e f,1.0,negative,m,0,17,17,81,74.11734020000222,,,,,,,,,74.102767700002,74.11734020000222,74.11734020000222,,74.85027980000086,m,0.7314958999995724,None,m,m,,,,06,001,2024-11-20_23h46.44.272,Lexical Decision Making,2024.1.5,None,2024-11-20 23h46.53.927116 +0530,
h a t e,1.0,negative,m,0,18,18,74,74.86533840000266,,,,,,,,,74.85081160000118,74.86533840000266,74.86533840000266,,75.61548650000259,m,0.7470075000019278,None,m,m,,,,06,001,2024-11-20_23h46.44.272,Lexical Decision Making,2024.1.5,None,2024-11-20 23h46.53.927116 +0530,
v o b l i t,0.0,non-word,z,0,19,19,38,75.6304041000003,,,,,,,,,75.61606830000164,75.6304041000003,75.6304041000003,,76.39569090000077,z,0.7505395000007411,None,z,z,,,,06,001,2024-11-20_23h46.44.272,Lexical Decision Making,2024.1.5,None,2024-11-20 23h46.53.927116 +0530,
r e g r e t,1.0,negative,m,0,20,20,64,76.41105750000133,,,,,,,,,76.39642260000255,76.41105750000133,76.41105750000133,77.42492610000045,77.45949140000084,m,1.032491599999048,None,m,m,,,,06,001,2024-11-20_23h46.44.272,Lexical Decision Making,2024.1.5,None,2024-11-20 23h46.53.927116 +0530,
g r i n d l e,0.0,non-word,z,0,21,21,3,77.47491540000192,,,,,,,,,77.46033069999976,77.47491540000192,77.47491540000192,,78.30664750000142,m,0.8163669000023219,None,m,z,,,,06,001,2024-11-20_23h46.44.272,Lexical Decision Making,2024.1.5,None,2024-11-20 23h46.53.927116 +0530,
v i c t o r y,1.0,positive,m,0,22,22,25,78.32254280000052,,,,,,,,,78.30720819999988,78.32254280000052,78.32254280000052,,79.20460950000052,z,0.8789242000020749,None,z,m,,,,06,001,2024-11-20_23h46.44.272,Lexical Decision Making,2024.1.5,None,2024-11-20 23h46.53.927116 +0530,
s m o r n,0.0,non-word,z,0,23,23,14,79.22009740000067,,,,,,,,,79.20513580000261,79.22009740000067,79.22009740000067,80.23382210000273,82.56181180000203,z,3.324692400001368,None,z,z,,,,06,001,2024-11-20_23h46.44.272,Lexical Decision Making,2024.1.5,None,2024-11-20 23h46.53.927116 +0530,
g r i e f,1.0,negative,m,0,24,24,50,82.57752600000094,,,,,,,,,82.56238730000041,82.57752600000094,82.57752600000094,83.59140000000116,83.95837850000316,m,1.3699946999986423,None,m,m,,,,06,001,2024-11-20_23h46.44.272,Lexical Decision Making,2024.1.5,None,2024-11-20 23h46.53.927116 +0530,
l o v e,1.0,positive,m,0,25,25,0,83.97382870000001,,,,,,,,,83.95891140000094,83.97382870000001,83.97382870000001,,84.55626370000027,m,0.5681487000001653,None,m,m,,,,06,001,2024-11-20_23h46.44.272,Lexical Decision Making,2024.1.5,None,2024-11-20 23h46.53.927116 +0530,
z a r f e t,0.0,non-word,z,0,26,26,31,84.57210940000004,,,,,,,,,84.55680570000186,84.57210940000004,84.57210940000004,,85.28841390000161,z,0.7152209000014409,None,z,z,,,,06,001,2024-11-20_23h46.44.272,Lexical Decision Making,2024.1.5,None,2024-11-20 23h46.53.927116 +0530,
k i n d n e s s,1.0,positive,m,0,27,27,82,85.303155900001,,,,,,,,,85.28929290000087,85.303155900001,85.303155900001,,86.0192597000023,m,0.708864000000176,None,m,m,,,,06,001,2024-11-20_23h46.44.272,Lexical Decision Making,2024.1.5,None,2024-11-20 23h46.53.927116 +0530,
s m a g l e,0.0,non-word,z,0,28,28,53,86.03470500000185,,,,,,,,,86.01992170000085,86.03470500000185,86.03470500000185,87.04846550000002,87.18298380000124,z,1.1328662000014447,None,z,z,,,,06,001,2024-11-20_23h46.44.272,Lexical Decision Making,2024.1.5,None,2024-11-20 23h46.53.927116 +0530,
z o m p r e,0.0,non-word,z,0,29,29,73,87.19867720000184,,,,,,,,,87.18351640000037,87.19867720000184,87.19867720000184,,87.78153329999986,z,0.5702333999979601,None,z,z,,,,06,001,2024-11-20_23h46.44.272,Lexical Decision Making,2024.1.5,None,2024-11-20 23h46.53.927116 +0530,
s u n s h i n e,1.0,positive,m,0,30,30,30,87.7969574000017,,,,,,,,,87.78223650000291,87.7969574000017,87.7969574000017,,88.48253600000317,m,0.6776094999986526,None,m,m,,,,06,001,2024-11-20_23h46.44.272,Lexical Decision Making,2024.1.5,None,2024-11-20 23h46.53.927116 +0530,
p l a r k,0.0,non-word,z,0,31,31,16,88.4946325000019,,,,,,,,,88.48309050000171,88.4946325000019,88.4946325000019,89.50845580000168,89.59308390000297,z,1.093365199998516,None,z,z,,,,06,001,2024-11-20_23h46.44.272,Lexical Decision Making,2024.1.5,None,2024-11-20 23h46.53.927116 +0530,
c a r p e t,1.0,neutral,m,0,32,32,85,89.60842820000107,,,,,,,,,89.59366260000024,89.60842820000107,89.60842820000107,,90.34114780000164,m,0.7257796000012604,None,m,m,,,,06,001,2024-11-20_23h46.44.272,Lexical Decision Making,2024.1.5,None,2024-11-20 23h46.53.927116 +0530,
a c h i e v e m e n t,1.0,positive,m,0,33,33,27,90.356294600002,,,,,,,,,90.34167610000077,90.356294600002,90.356294600002,,91.02269130000059,m,0.6595238999980211,None,m,m,,,,06,001,2024-11-20_23h46.44.272,Lexical Decision Making,2024.1.5,None,2024-11-20 23h46.53.927116 +0530,
f e a r f u l,1.0,negative,m,0,34,34,98,91.03783269999985,,,,,,,,,91.0232130000004,91.03783269999985,91.03783269999985,,91.55392950000169,z,0.513195600000472,None,z,m,,,,06,001,2024-11-20_23h46.44.272,Lexical Decision Making,2024.1.5,None,2024-11-20 23h46.53.927116 +0530,
j o y f u l,1.0,positive,m,0,35,35,19,91.56962920000296,,,,,,,,,91.554457000002,91.56962920000296,91.56962920000296,92.58360929999981,92.6185835000033,m,1.0372075000013865,None,m,m,,,,06,001,2024-11-20_23h46.44.272,Lexical Decision Making,2024.1.5,None,2024-11-20 23h46.53.927116 +0530,
s a d n e s s,1.0,negative,m,0,36,36,88,92.63322859999971,,,,,,,,,92.61913210000057,92.63322859999971,92.63322859999971,,93.16665420000209,m,0.5224265000033483,None,m,m,,,,06,001,2024-11-20_23h46.44.272,Lexical Decision Making,2024.1.5,None,2024-11-20 23h46.53.927116 +0530,
s a d n e s s,1.0,negative,m,0,37,37,65,93.1822600000014,,,,,,,,,93.1671860000024,93.1822600000014,93.1822600000014,,94.03050179999991,m,0.8457038999986253,None,m,m,,,,06,001,2024-11-20_23h46.44.272,Lexical Decision Making,2024.1.5,None,2024-11-20 23h46.53.927116 +0530,
c a b l e,1.0,neutral,m,0,38,38,78,94.0467243000021,,,,,,,,,94.03102220000073,94.0467243000021,94.0467243000021,,94.72927810000328,m,0.6742930000000342,None,m,m,,,,06,001,2024-11-20_23h46.44.272,Lexical Decision Making,2024.1.5,None,2024-11-20 23h46.53.927116 +0530,
q u i b l e n,0.0,non-word,z,0,39,39,91,94.74404980000327,,,,,,,,,94.73021930000323,94.74404980000327,94.74404980000327,,95.46017530000245,z,0.7100606000021799,None,z,z,,,,06,001,2024-11-20_23h46.44.272,Lexical Decision Making,2024.1.5,None,2024-11-20 23h46.53.927116 +0530,
d r i n t,0.0,non-word,z,0,40,40,23,95.47611110000071,,,,,,,,,95.46087200000329,95.47611110000071,95.47611110000071,,96.29156789999979,z,0.8007542999985162,None,z,z,,,,06,001,2024-11-20_23h46.44.272,Lexical Decision Making,2024.1.5,None,2024-11-20 23h46.53.927116 +0530,
c r i t i c i s m,1.0,negative,m,0,41,41,26,96.30674740000177,,,,,,,,,96.29235650000192,96.30674740000177,96.30674740000177,,97.13858270000128,m,0.8152894000013475,None,m,m,,,,06,001,2024-11-20_23h46.44.272,Lexical Decision Making,2024.1.5,None,2024-11-20 23h46.53.927116 +0530,
g r i e f,1.0,negative,m,0,42,42,62,97.15468610000244,,,,,,,,,97.13916299999983,97.15468610000244,97.15468610000244,,97.68757850000111,m,0.5195358999990276,None,m,m,,,,06,001,2024-11-20_23h46.44.272,Lexical Decision Making,2024.1.5,None,2024-11-20 23h46.53.927116 +0530,
c h e e r f u l,1.0,positive,m,0,43,43,43,97.70290900000327,,,,,,,,,97.68816080000033,97.70290900000327,97.70290900000327,,98.40289100000155,m,0.69319909999831,None,m,m,,,,06,001,2024-11-20_23h46.44.272,Lexical Decision Making,2024.1.5,None,2024-11-20 23h46.53.927116 +0530,
b l o r p,0.0,non-word,z,0,44,44,84,98.41976960000102,,,,,,,,,98.4034180000017,98.41976960000102,98.41976960000102,,99.11688040000081,z,0.6887375000005704,None,z,z,,,,06,001,2024-11-20_23h46.44.272,Lexical Decision Making,2024.1.5,None,2024-11-20 23h46.53.927116 +0530,
p e a c e,1.0,positive,m,0,45,45,89,99.13286260000314,,,,,,,,,99.11744490000274,99.13286260000314,99.13286260000314,,99.815063500002,m,0.6673663000001397,None,m,m,,,,06,001,2024-11-20_23h46.44.272,Lexical Decision Making,2024.1.5,None,2024-11-20 23h46.53.927116 +0530,
s a d,1.0,negative,m,0,46,46,87,99.83086330000151,,,,,,,,,99.81580450000183,99.83086330000151,99.83086330000151,,100.43348850000257,m,0.5871248000003106,None,m,m,,,,06,001,2024-11-20_23h46.44.272,Lexical Decision Making,2024.1.5,None,2024-11-20 23h46.53.927116 +0530,
s w o r p y,0.0,non-word,z,0,47,47,69,100.44503780000014,,,,,,,,,100.43467070000042,100.44503780000014,100.44503780000014,,101.11082290000195,z,0.6511357999988832,None,z,z,,,,06,001,2024-11-20_23h46.44.272,Lexical Decision Making,2024.1.5,None,2024-11-20 23h46.53.927116 +0530,
f a i l u r e,1.0,negative,m,0,48,48,77,101.12662350000028,,,,,,,,,101.11135760000252,101.12662350000028,101.12662350000028,,101.8597735000003,m,0.7177049000019906,None,m,m,,,,06,001,2024-11-20_23h46.44.272,Lexical Decision Making,2024.1.5,None,2024-11-20 23h46.53.927116 +0530,
m i s e r y,1.0,negative,m,0,49,49,34,101.8744927000007,,,,,,,,,101.86029320000307,101.8744927000007,101.8744927000007,,102.42469760000313,z,0.5341273999983969,None,z,m,,,,06,001,2024-11-20_23h46.44.272,Lexical Decision Making,2024.1.5,None,2024-11-20 23h46.53.927116 +0530,
c r y,1.0,negative,m,0,50,50,61,102.4397914000001,,,,,,,,,102.42522250000184,102.4397914000001,102.4397914000001,,103.30575070000123,m,0.8563744000020961,None,m,m,,,,06,001,2024-11-20_23h46.44.272,Lexical Decision Making,2024.1.5,None,2024-11-20 23h46.53.927116 +0530,
v a b l i n,0.0,non-word,z,0,51,51,1,103.32145550000132,,,,,,,,,103.30631340000036,103.32145550000132,103.32145550000132,,103.82082210000226,m,0.4983444999998028,None,m,z,,,,06,001,2024-11-20_23h46.44.272,Lexical Decision Making,2024.1.5,None,2024-11-20 23h46.53.927116 +0530,
s m i l e,1.0,positive,m,0,52,52,55,103.83589270000084,,,,,,,,,103.82153840000319,103.83589270000084,103.83589270000084,,104.8013654000024,z,0.9582851999984996,None,z,m,,,,06,001,2024-11-20_23h46.44.272,Lexical Decision Making,2024.1.5,None,2024-11-20 23h46.53.927116 +0530,
p e a c e,1.0,positive,m,0,53,53,97,104.81637039999987,,,,,,,,,104.80189270000119,104.81637039999987,104.81637039999987,105.83045889999994,106.09805659999984,m,1.268246800002089,None,m,m,,,,06,001,2024-11-20_23h46.44.272,Lexical Decision Making,2024.1.5,None,2024-11-20 23h46.53.927116 +0530,
l a w v e r,0.0,non-word,z,0,54,54,76,106.11307920000036,,,,,,,,,106.0986077000016,106.11307920000036,106.11307920000036,,106.96195240000088,z,0.8444618999965314,None,z,z,,,,06,001,2024-11-20_23h46.44.272,Lexical Decision Making,2024.1.5,None,2024-11-20 23h46.53.927116 +0530,
c r i o u s,0.0,non-word,z,0,55,55,99,106.97739809999985,,,,,,,,,106.96276760000183,106.97739809999985,106.97739809999985,107.99174029999995,108.26204990000042,z,1.271225600001344,None,z,z,,,,06,001,2024-11-20_23h46.44.272,Lexical Decision Making,2024.1.5,None,2024-11-20 23h46.53.927116 +0530,
t r e n k,0.0,non-word,z,0,56,56,57,108.29049840000152,,,,,,,,,108.26300380000248,108.29049840000152,108.29049840000152,,108.9903458000008,z,0.6897849999986647,None,z,z,,,,06,001,2024-11-20_23h46.44.272,Lexical Decision Making,2024.1.5,None,2024-11-20 23h46.53.927116 +0530,
m e t r o,1.0,neutral,m,0,57,57,96,109.00533410000207,,,,,,,,,108.99095750000197,109.00533410000207,109.00533410000207,,109.75418360000185,m,0.7437683999996807,None,m,m,,,,06,001,2024-11-20_23h46.44.272,Lexical Decision Making,2024.1.5,None,2024-11-20 23h46.53.927116 +0530,
g r u f f i l,0.0,non-word,z,0,58,58,49,109.7695644000014,,,,,,,,,109.7547255999998,109.7695644000014,109.7695644000014,,110.5357161000029,z,0.7570254999991448,None,z,z,,,,06,001,2024-11-20_23h46.44.272,Lexical Decision Making,2024.1.5,None,2024-11-20 23h46.53.927116 +0530,
s m i l e,1.0,positive,m,0,59,59,92,110.55106330000126,,,,,,,,,110.53636910000205,110.55106330000126,110.55106330000126,,111.35010180000245,m,0.795670000003156,None,m,m,,,,06,001,2024-11-20_23h46.44.272,Lexical Decision Making,2024.1.5,None,2024-11-20 23h46.53.927116 +0530,
c a l e n d a r,1.0,neutral,m,0,60,60,86,111.36554770000294,,,,,,,,,111.35064090000014,111.36554770000294,111.36554770000294,,112.04807930000243,m,0.6683117000029597,None,m,m,,,,06,001,2024-11-20_23h46.44.272,Lexical Decision Making,2024.1.5,None,2024-11-20 23h46.53.927116 +0530,
c e l e b r a t i o n,1.0,positive,m,0,61,61,75,112.06345070000316,,,,,,,,,112.04879830000209,112.06345070000316,112.06345070000316,,112.8288472000022,m,0.7539111000005505,None,m,m,,,,06,001,2024-11-20_23h46.44.272,Lexical Decision Making,2024.1.5,None,2024-11-20 23h46.53.927116 +0530,
l a m p,1.0,neutral,m,0,62,62,42,112.84455920000255,,,,,,,,,112.82959430000119,112.84455920000255,112.84455920000255,,113.6272338000017,m,0.7706701999995857,None,m,m,,,,06,001,2024-11-20_23h46.44.272,Lexical Decision Making,2024.1.5,None,2024-11-20 23h46.53.927116 +0530,
b l o r p,0.0,non-word,z,0,63,63,5,113.64225850000003,,,,,,,,,113.62780080000084,113.64225850000003,113.64225850000003,,114.25911220000125,z,0.6033657000007224,None,z,z,,,,06,001,2024-11-20_23h46.44.272,Lexical Decision Making,2024.1.5,None,2024-11-20 23h46.53.927116 +0530,
s m o r n,0.0,non-word,z,0,64,64,51,114.27392529999997,,,,,,,,,114.2600173000028,114.27392529999997,114.27392529999997,,115.08964019999985,z,0.8117745000017749,None,z,z,,,,06,001,2024-11-20_23h46.44.272,Lexical Decision Making,2024.1.5,None,2024-11-20 23h46.53.927116 +0530,
a n g e r,1.0,negative,m,0,65,65,44,115.10544680000021,,,,,,,,,115.09019100000296,115.10544680000021,115.10544680000021,,115.75472970000192,m,0.647260699999606,None,m,m,,,,06,001,2024-11-20_23h46.44.272,Lexical Decision Making,2024.1.5,None,2024-11-20 23h46.53.927116 +0530,
c l o c k,1.0,neutral,m,0,66,66,48,115.76982070000304,,,,,,,,,115.75525850000122,115.76982070000304,115.76982070000304,,116.53613010000117,m,0.7652286000011372,None,m,m,,,,06,001,2024-11-20_23h46.44.272,Lexical Decision Making,2024.1.5,None,2024-11-20 23h46.53.927116 +0530,
d r e n k,0.0,non-word,z,0,67,67,4,116.55135750000045,,,,,,,,,116.53665680000267,116.55135750000045,116.55135750000045,,117.23390620000282,z,0.6701691999987816,None,z,z,,,,06,001,2024-11-20_23h46.44.272,Lexical Decision Making,2024.1.5,None,2024-11-20 23h46.53.927116 +0530,
p l a r k,0.0,non-word,z,0,68,68,45,117.24959730000046,,,,,,,,,117.23444390000077,117.24959730000046,117.24959730000046,,118.11503799999991,z,0.8639345000010508,None,z,z,,,,06,001,2024-11-20_23h46.44.272,Lexical Decision Making,2024.1.5,None,2024-11-20 23h46.53.927116 +0530,
w i n d o w,1.0,neutral,m,0,69,69,68,118.13036080000165,,,,,,,,,118.11556470000141,118.13036080000165,118.13036080000165,,119.02854389999993,m,0.8923776999981783,None,m,m,,,,06,001,2024-11-20_23h46.44.272,Lexical Decision Making,2024.1.5,None,2024-11-20 23h46.53.927116 +0530,
c l i b b e t,0.0,non-word,z,0,70,70,12,119.04427770000257,,,,,,,,,119.02908110000135,119.04427770000257,119.04427770000257,,119.92708100000164,z,0.8809948000016448,None,z,z,,,,06,001,2024-11-20_23h46.44.272,Lexical Decision Making,2024.1.5,None,2024-11-20 23h46.53.927116 +0530,
p e n c i l,1.0,neutral,m,0,71,71,37,119.9420491000019,,,,,,,,,119.92763830000331,119.9420491000019,119.9420491000019,120.9557636999998,121.04037630000312,m,1.0933018999967317,None,m,m,,,,06,001,2024-11-20_23h46.44.272,Lexical Decision Making,2024.1.5,None,2024-11-20 23h46.53.927116 +0530,
h a p p y,1.0,positive,m,0,72,72,21,121.05614160000187,,,,,,,,,121.04094930000065,121.05614160000187,121.05614160000187,,121.68833890000315,m,0.6164262999991479,None,m,m,,,,06,001,2024-11-20_23h46.44.272,Lexical Decision Making,2024.1.5,None,2024-11-20 23h46.53.927116 +0530,
c h a i r,1.0,neutral,m,0,73,73,7,121.70404370000324,,,,,,,,,121.68887739999991,121.70404370000324,121.70404370000324,,122.4362663000029,m,0.727842000000237,None,m,m,,,,06,001,2024-11-20_23h46.44.272,Lexical Decision Making,2024.1.5,None,2024-11-20 23h46.53.927116 +0530,
g r i n d l e,0.0,non-word,z,0,74,74,17,122.4518547000007,,,,,,,,,122.43681130000186,122.4518547000007,122.4518547000007,123.46583760000067,123.51643540000077,z,1.0571187999994436,None,z,z,,,,06,001,2024-11-20_23h46.44.272,Lexical Decision Making,2024.1.5,None,2024-11-20 23h46.53.927116 +0530,
s u c c e s s,1.0,positive,m,0,75,75,35,123.53193310000279,,,,,,,,,123.51699580000059,123.53193310000279,123.53193310000279,124.54612270000143,124.6801802000009,m,1.1356162000010954,None,m,m,,,,06,001,2024-11-20_23h46.44.272,Lexical Decision Making,2024.1.5,None,2024-11-20 23h46.53.927116 +0530,
p l a n e t,1.0,neutral,m,0,76,76,47,124.69564549999996,,,,,,,,,124.68071840000266,124.69564549999996,124.69564549999996,125.70935269999973,126.39250000000175,z,1.6808172000019113,None,z,m,,,,06,001,2024-11-20_23h46.44.272,Lexical Decision Making,2024.1.5,None,2024-11-20 23h46.53.927116 +0530,
t w o r i k,0.0,non-word,z,0,77,77,93,126.4080126000008,,,,,,,,,126.39317270000174,126.4080126000008,126.4080126000008,,127.27309380000224,z,0.8626713999983622,None,z,z,,,,06,001,2024-11-20_23h46.44.272,Lexical Decision Making,2024.1.5,None,2024-11-20 23h46.53.927116 +0530,
b l o r p,0.0,non-word,z,0,78,78,60,127.28864969999995,,,,,,,,,127.27362520000315,127.28864969999995,127.28864969999995,,128.27026070000284,z,0.9780119999995804,None,z,z,,,,06,001,2024-11-20_23h46.44.272,Lexical Decision Making,2024.1.5,None,2024-11-20 23h46.53.927116 +0530,
p e n c i l,1.0,neutral,m,0,79,79,24,128.28586650000216,,,,,,,,,128.27079150000282,128.28586650000216,128.28586650000216,,128.9352800000015,m,0.635738199998741,None,m,m,,,,06,001,2024-11-20_23h46.44.272,Lexical Decision Making,2024.1.5,None,2024-11-20 23h46.53.927116 +0530,
e x c i t e d,1.0,positive,m,0,80,80,10,128.95075180000276,,,,,,,,,128.93582250000327,128.95075180000276,128.95075180000276,,129.9158419000014,m,0.9639414000012039,None,m,m,,,,06,001,2024-11-20_23h46.44.272,Lexical Decision Making,2024.1.5,None,2024-11-20 23h46.53.927116 +0530,
a p p l e,1.0,neutral,m,0,81,81,32,129.93124370000078,,,,,,,,,129.91639470000155,129.93124370000078,129.93124370000078,,130.56447240000125,m,0.6259643000012147,None,m,m,,,,06,001,2024-11-20_23h46.44.272,Lexical Decision Making,2024.1.5,None,2024-11-20 23h46.53.927116 +0530,
l a m p,1.0,neutral,m,0,82,82,18,130.57961510000314,,,,,,,,,130.56516620000184,130.57961510000314,130.57961510000314,131.59399610000037,131.69460660000186,m,1.1024889000000258,None,m,m,,,,06,001,2024-11-20_23h46.44.272,Lexical Decision Making,2024.1.5,None,2024-11-20 23h46.53.927116 +0530,
d r e a m,1.0,positive,m,0,83,83,9,131.71016260000033,,,,,,,,,131.69515020000108,131.71016260000033,131.71016260000033,,132.2264004000026,m,0.5018999999992957,None,m,m,,,,06,001,2024-11-20_23h46.44.272,Lexical Decision Making,2024.1.5,None,2024-11-20 23h46.53.927116 +0530,
f l o r t,0.0,non-word,z,0,84,84,11,132.2414177999999,,,,,,,,,132.2269550000019,132.2414177999999,132.2414177999999,,132.94104720000178,z,0.6847319999978936,None,z,z,,,,06,001,2024-11-20_23h46.44.272,Lexical Decision Making,2024.1.5,None,2024-11-20 23h46.53.927116 +0530,
b r a s k,0.0,non-word,z,0,85,85,79,132.95648840000285,,,,,,,,,132.9415880000015,132.95648840000285,132.95648840000285,133.97027100000196,134.0375512999999,z,1.0645289000021876,None,z,z,,,,06,001,2024-11-20_23h46.44.272,Lexical Decision Making,2024.1.5,None,2024-11-20 23h46.53.927116 +0530,
e x c i t e d,1.0,positive,m,0,86,86,72,134.05331040000237,,,,,,,,,134.03860950000308,134.05331040000237,134.05331040000237,,134.8360375000011,m,0.7777505000012752,None,m,m,,,,06,001,2024-11-20_23h46.44.272,Lexical Decision Making,2024.1.5,None,2024-11-20 23h46.53.927116 +0530,
s t o n e,1.0,neutral,m,0,87,87,13,134.85183010000037,,,,,,,,,134.83656090000295,134.85183010000037,134.85183010000037,135.86508860000322,136.03273930000069,m,1.1796565000004193,None,m,m,,,,06,001,2024-11-20_23h46.44.272,Lexical Decision Making,2024.1.5,None,2024-11-20 23h46.53.927116 +0530,
c h i n d l e,0.0,non-word,z,0,88,88,8,136.04857760000232,,,,,,,,,136.03339060000144,136.04857760000232,136.04857760000232,,136.74780939999982,z,0.6971938999995473,None,z,z,,,,06,001,2024-11-20_23h46.44.272,Lexical Decision Making,2024.1.5,None,2024-11-20 23h46.53.927116 +0530,
a n g e r,1.0,negative,m,0,89,89,15,136.76276380000127,,,,,,,,,136.74835590000293,136.76276380000127,136.76276380000127,,137.4456870000031,m,0.6670000000012806,None,m,m,,,,06,001,2024-11-20_23h46.44.272,Lexical Decision Making,2024.1.5,None,2024-11-20 23h46.53.927116 +0530,
t r a g e d y,1.0,negative,m,0,90,90,70,137.46085190000304,,,,,,,,,137.44622610000079,137.46085190000304,137.46085190000304,,138.04395830000067,z,0.5758525999990525,None,z,m,,,,06,001,2024-11-20_23h46.44.272,Lexical Decision Making,2024.1.5,None,2024-11-20 23h46.53.927116 +0530,
b o o k,1.0,neutral,m,0,91,91,22,138.05957020000278,,,,,,,,,138.0445329000031,138.05957020000278,138.05957020000278,,138.95831840000028,m,0.8861422000009043,None,m,m,,,,06,001,2024-11-20_23h46.44.272,Lexical Decision Making,2024.1.5,None,2024-11-20 23h46.53.927116 +0530,
c l o u d,1.0,neutral,m,0,92,92,94,138.97352170000158,,,,,,,,,138.95887010000297,138.97352170000158,138.97352170000158,,139.4565997000027,m,0.46833970000079717,None,m,m,,,,06,001,2024-11-20_23h46.44.272,Lexical Decision Making,2024.1.5,None,2024-11-20 23h46.53.927116 +0530,
c l o c k,1.0,neutral,m,0,93,93,20,139.47227700000076,,,,,,,,,139.45718960000158,139.47227700000076,139.47227700000076,,140.13767150000058,m,0.6630096999979287,None,m,m,,,,06,001,2024-11-20_23h46.44.272,Lexical Decision Making,2024.1.5,None,2024-11-20 23h46.53.927116 +0530,
g r a t i t u d e,1.0,positive,m,0,94,94,41,140.1535352000028,,,,,,,,,140.13821670000107,140.1535352000028,140.1535352000028,,140.75359260000187,z,0.5861291000001074,None,z,m,,,,06,001,2024-11-20_23h46.44.272,Lexical Decision Making,2024.1.5,None,2024-11-20 23h46.53.927116 +0530,
m o u n t a i n,1.0,neutral,m,0,95,95,71,140.7687074000023,,,,,,,,,140.75413500000286,140.7687074000023,140.7687074000023,,140.90275980000297,m,0.12690680000014254,None,m,m,,,,06,001,2024-11-20_23h46.44.272,Lexical Decision Making,2024.1.5,None,2024-11-20 23h46.53.927116 +0530,
c h e e r,1.0,positive,m,0,96,96,63,140.91786599999978,,,,,,,,,140.90331380000134,140.91786599999978,140.91786599999978,141.93177210000067,142.56459830000313,m,1.6424158999980136,None,m,m,,,,06,001,2024-11-20_23h46.44.272,Lexical Decision Making,2024.1.5,None,2024-11-20 23h46.53.927116 +0530,
t r a i n,1.0,neutral,m,0,97,97,40,142.58029090000127,,,,,,,,,142.56515130000116,142.58029090000127,142.58029090000127,143.59406149999995,144.90843810000297,m,2.3210183000010147,None,m,m,,,,06,001,2024-11-20_23h46.44.272,Lexical Decision Making,2024.1.5,None,2024-11-20 23h46.53.927116 +0530,
l o s s,1.0,negative,m,0,98,98,29,144.92381410000235,,,,,,,,,144.9091565000017,144.92381410000235,144.92381410000235,145.93765570000323,146.3711285999998,m,1.4313978999998653,None,m,m,,,,06,001,2024-11-20_23h46.44.272,Lexical Decision Making,2024.1.5,None,2024-11-20 23h46.53.927116 +0530,
b o t t l e,1.0,neutral,m,0,99,99,58,146.3866323000002,,,,,,,,,146.3716604000001,146.3866323000002,146.3866323000002,147.4003745000009,148.94768810000096,m,2.55412140000044,None,m,m,,,,06,001,2024-11-20_23h46.44.272,Lexical Decision Making,2024.1.5,None,2024-11-20 23h46.53.927116 +0530,
b o t t l e,1.0,neutral,m,1,0,100,58,148.96276560000115,,,,,,,,,148.9483422000012,148.96276560000115,148.96276560000115,,149.5456832000018,m,0.565928600000916,None,m,m,,,,06,001,2024-11-20_23h46.44.272,Lexical Decision Making,2024.1.5,None,2024-11-20 23h46.53.927116 +0530,
p e n c i l,1.0,neutral,m,1,1,101,37,149.561015700001,,,,,,,,,149.54636580000079,149.561015700001,149.561015700001,,150.4264602000003,z,0.8589291999996931,None,z,m,,,,06,001,2024-11-20_23h46.44.272,Lexical Decision Making,2024.1.5,None,2024-11-20 23h46.53.927116 +0530,
s t o n e,1.0,neutral,m,1,2,102,13,150.44203760000164,,,,,,,,,150.42701099999977,150.44203760000164,150.44203760000164,151.45571410000048,151.64018209999995,m,1.1810292000009213,None,m,m,,,,06,001,2024-11-20_23h46.44.272,Lexical Decision Making,2024.1.5,None,2024-11-20 23h46.53.927116 +0530,
c h a i r,1.0,neutral,m,1,3,103,7,151.65548780000245,,,,,,,,,151.6407164000011,151.65548780000245,151.65548780000245,,152.5038800000002,m,0.8430030000017723,None,m,m,,,,06,001,2024-11-20_23h46.44.272,Lexical Decision Making,2024.1.5,None,2024-11-20 23h46.53.927116 +0530,
s u n s h i n e,1.0,positive,m,1,4,104,30,152.51956740000242,,,,,,,,,152.50440180000078,152.51956740000242,152.51956740000242,,153.21962770000027,m,0.693086499999481,None,m,m,,,,06,001,2024-11-20_23h46.44.272,Lexical Decision Making,2024.1.5,None,2024-11-20 23h46.53.927116 +0530,
c h e e r,1.0,positive,m,1,5,105,63,153.2348712000021,,,,,,,,,153.2203479000018,153.2348712000021,153.2348712000021,,154.11709820000033,m,0.8653976999994484,None,m,m,,,,06,001,2024-11-20_23h46.44.272,Lexical Decision Making,2024.1.5,None,2024-11-20 23h46.53.927116 +0530,
t a b l e,1.0,neutral,m,1,6,106,6,154.13184460000048,,,,,,,,,154.1176351000031,154.13184460000048,154.13184460000048,,154.7817224999999,m,0.6411282000008214,None,m,m,,,,06,001,2024-11-20_23h46.44.272,Lexical Decision Making,2024.1.5,None,2024-11-20 23h46.53.927116 +0530,
l o v e,1.0,positive,m,1,7,107,0,154.79727640000056,,,,,,,,,154.7822668000008,154.79727640000056,154.79727640000056,155.81102800000008,155.91134250000323,m,1.1088583000018843,None,m,m,,,,06,001,2024-11-20_23h46.44.272,Lexical Decision Making,2024.1.5,None,2024-11-20 23h46.53.927116 +0530,
c h e e r f u l,1.0,positive,m,1,8,108,43,155.9269118000011,,,,,,,,,155.91201720000026,155.9269118000011,155.9269118000011,,156.59313590000238,m,0.6537255000002915,None,m,m,,,,06,001,2024-11-20_23h46.44.272,Lexical Decision Making,2024.1.5,None,2024-11-20 23h46.53.927116 +0530,
l o m e b,0.0,non-word,z,1,9,109,90,156.6086415000027,,,,,,,,,156.5936588000004,156.6086415000027,156.6086415000027,,157.34134210000047,z,0.7314138000001549,None,z,z,,,,06,001,2024-11-20_23h46.44.272,Lexical Decision Making,2024.1.5,None,2024-11-20 23h46.53.927116 +0530,
z a r f e t,0.0,non-word,z,1,10,110,31,157.3567890000013,,,,,,,,,157.3418698000023,157.3567890000013,157.3567890000013,,157.9730178000027,z,0.6055073999996239,None,z,z,,,,06,001,2024-11-20_23h46.44.272,Lexical Decision Making,2024.1.5,None,2024-11-20 23h46.53.927116 +0530,
b l o r p,0.0,non-word,z,1,11,111,5,157.98805680000078,,,,,,,,,157.97354610000184,157.98805680000078,157.98805680000078,,158.58823230000053,z,0.596003999999084,None,z,z,,,,06,001,2024-11-20_23h46.44.272,Lexical Decision Making,2024.1.5,None,2024-11-20 23h46.53.927116 +0530,
b l o r p,0.0,non-word,z,1,12,112,60,158.60328310000114,,,,,,,,,158.5888208000033,158.60328310000114,158.60328310000114,,159.25230630000078,z,0.6329611999972258,None,z,z,,,,06,001,2024-11-20_23h46.44.272,Lexical Decision Making,2024.1.5,None,2024-11-20 23h46.53.927116 +0530,
v a b l i n,0.0,non-word,z,1,13,113,1,159.26834950000193,,,,,,,,,159.25285760000043,159.26834950000193,159.26834950000193,,159.9347342000001,z,0.6619506999995792,None,z,z,,,,06,001,2024-11-20_23h46.44.272,Lexical Decision Making,2024.1.5,None,2024-11-20 23h46.53.927116 +0530,
h a t e,1.0,negative,m,1,14,114,74,159.9492605000014,,,,,,,,,159.93535890000203,159.9492605000014,159.9492605000014,160.96309380000093,161.33054220000122,m,1.374892900003033,None,m,m,,,,06,001,2024-11-20_23h46.44.272,Lexical Decision Making,2024.1.5,None,2024-11-20 23h46.53.927116 +0530,
s a d n e s s,1.0,negative,m,1,15,115,88,161.34570840000015,,,,,,,,,161.3310685000033,161.34570840000015,161.34570840000015,162.3594438,162.47728810000262,m,1.1252008000010392,None,m,m,,,,06,001,2024-11-20_23h46.44.272,Lexical Decision Making,2024.1.5,None,2024-11-20 23h46.53.927116 +0530,
c a r p e t,1.0,neutral,m,1,16,116,85,162.49288080000042,,,,,,,,,162.47782329999973,162.49288080000042,162.49288080000042,,163.10905009999988,z,0.6022950999977184,None,z,m,,,,06,001,2024-11-20_23h46.44.272,Lexical Decision Making,2024.1.5,None,2024-11-20 23h46.53.927116 +0530,
m u r k l e,0.0,non-word,z,1,17,117,66,163.12506320000102,,,,,,,,,163.10978980000073,163.12506320000102,163.12506320000102,,164.0897470000018,z,0.9547229999989213,None,z,z,,,,06,001,2024-11-20_23h46.44.272,Lexical Decision Making,2024.1.5,None,2024-11-20 23h46.53.927116 +0530,
k i n d n e s s,1.0,positive,m,1,18,118,82,164.10504290000245,,,,,,,,,164.0903145000011,164.10504290000245,164.10504290000245,,164.90502590000324,m,0.7985130999986723,None,m,m,,,,06,001,2024-11-20_23h46.44.272,Lexical Decision Making,2024.1.5,None,2024-11-20 23h46.53.927116 +0530,
g r i e f,1.0,negative,m,1,19,119,81,164.9194666000003,,,,,,,,,164.9055511000006,164.9194666000003,164.9194666000003,,165.51899250000133,m,0.5836178999998083,None,m,m,,,,06,001,2024-11-20_23h46.44.272,Lexical Decision Making,2024.1.5,None,2024-11-20 23h46.53.927116 +0530,
m o u n t a i n,1.0,neutral,m,1,20,120,71,165.53457420000268,,,,,,,,,165.51957600000242,165.53457420000268,165.53457420000268,,166.33364970000184,m,0.7834732999981497,None,m,m,,,,06,001,2024-11-20_23h46.44.272,Lexical Decision Making,2024.1.5,None,2024-11-20 23h46.53.927116 +0530,
a n g e r,1.0,negative,m,1,21,121,44,166.34852740000133,,,,,,,,,166.33418860000165,166.34852740000133,166.34852740000133,167.36246250000113,167.46376710000186,m,1.113908100000117,None,m,m,,,,06,001,2024-11-20_23h46.44.272,Lexical Decision Making,2024.1.5,None,2024-11-20 23h46.53.927116 +0530,
m e t r o,1.0,neutral,m,1,22,122,96,167.47911430000022,,,,,,,,,167.4642969000015,167.47911430000022,167.47911430000022,,168.04510910000317,m,0.5520802000028198,None,m,m,,,,06,001,2024-11-20_23h46.44.272,Lexical Decision Making,2024.1.5,None,2024-11-20 23h46.53.927116 +0530,
c r y,1.0,negative,m,1,23,123,61,168.06060520000028,,,,,,,,,168.0456387000013,168.06060520000028,168.06060520000028,,168.80979720000323,m,0.7357401000008394,None,m,m,,,,06,001,2024-11-20_23h46.44.272,Lexical Decision Making,2024.1.5,None,2024-11-20 23h46.53.927116 +0530,
b o o k,1.0,neutral,m,1,24,124,22,168.8250571000026,,,,,,,,,168.81034940000245,168.8250571000026,168.8250571000026,,169.60765960000208,m,0.7811356999991403,None,m,m,,,,06,001,2024-11-20_23h46.44.272,Lexical Decision Making,2024.1.5,None,2024-11-20 23h46.53.927116 +0530,
h o p e,1.0,positive,m,1,25,125,46,169.62338740000268,,,,,,,,,169.6085172000021,169.62338740000268,169.62338740000268,,170.472224000001,m,0.8336328999976104,None,m,m,,,,06,001,2024-11-20_23h46.44.272,Lexical Decision Making,2024.1.5,None,2024-11-20 23h46.53.927116 +0530,
p l a n e t,1.0,neutral,m,1,26,126,47,170.48785470000075,,,,,,,,,170.47294310000143,170.48785470000075,170.48785470000075,171.50180170000021,171.65220480000062,m,1.1622658999986015,None,m,m,,,,06,001,2024-11-20_23h46.44.272,Lexical Decision Making,2024.1.5,None,2024-11-20 23h46.53.927116 +0530,
f l o r t,0.0,non-word,z,1,27,127,11,171.66768740000043,,,,,,,,,171.65274020000288,171.66768740000043,171.66768740000043,,172.40020730000106,z,0.7290324999994482,None,z,z,,,,06,001,2024-11-20_23h46.44.272,Lexical Decision Making,2024.1.5,None,2024-11-20 23h46.53.927116 +0530,
h a p p y,1.0,positive,m,1,28,128,21,172.41557610000018,,,,,,,,,172.40073360000315,172.41557610000018,172.41557610000018,,173.03187150000304,m,0.608029399998486,None,m,m,,,,06,001,2024-11-20_23h46.44.272,Lexical Decision Making,2024.1.5,None,2024-11-20 23h46.53.927116 +0530,
f a i l u r e,1.0,negative,m,1,29,129,77,173.04689100000178,,,,,,,,,173.03240410000217,173.04689100000178,173.04689100000178,,173.86301170000297,z,0.8136531000018294,None,z,m,,,,06,001,2024-11-20_23h46.44.272,Lexical Decision Making,2024.1.5,None,2024-11-20 23h46.53.927116 +0530,
g l o r b y,0.0,non-word,z,1,30,130,28,173.87835110000015,,,,,,,,,173.8635334999999,173.87835110000015,173.87835110000015,,174.67716530000325,z,0.7826448000014352,None,z,z,,,,06,001,2024-11-20_23h46.44.272,Lexical Decision Making,2024.1.5,None,2024-11-20 23h46.53.927116 +0530,
f e a r f u l,1.0,negative,m,1,31,131,2,174.69262030000027,,,,,,,,,174.67808050000167,174.69262030000027,174.69262030000027,,175.21174630000314,m,0.5048453999988851,None,m,m,,,,06,001,2024-11-20_23h46.44.272,Lexical Decision Making,2024.1.5,None,2024-11-20 23h46.53.927116 +0530,
c r i t i c i s m,1.0,negative,m,1,32,132,26,175.22421980000217,,,,,,,,,175.21227790000194,175.22421980000217,175.22421980000217,,175.8239523000011,m,0.5968766000005417,None,m,m,,,,06,001,2024-11-20_23h46.44.272,Lexical Decision Making,2024.1.5,None,2024-11-20 23h46.53.927116 +0530,
l a m p,1.0,neutral,m,1,33,133,18,175.8393774000033,,,,,,,,,175.82447780000075,175.8393774000033,175.8393774000033,176.85316349999994,176.83739050000077,m,0.9946856999995362,None,m,m,,,,06,001,2024-11-20_23h46.44.272,Lexical Decision Making,2024.1.5,None,2024-11-20 23h46.53.927116 +0530,
g r i e f,1.0,negative,m,1,34,134,50,176.85316349999994,,,,,,,,,176.83791910000218,176.85316349999994,176.85316349999994,,177.4032361000027,m,0.5354048000008333,None,m,m,,,,06,001,2024-11-20_23h46.44.272,Lexical Decision Making,2024.1.5,None,2024-11-20 23h46.53.927116 +0530,
d r e n k,0.0,non-word,z,1,35,135,4,177.4182247000026,,,,,,,,,177.40384210000047,177.4182247000026,177.4182247000026,,178.03544120000151,z,0.6157290999981342,None,z,z,,,,06,001,2024-11-20_23h46.44.272,Lexical Decision Making,2024.1.5,None,2024-11-20 23h46.53.927116 +0530,
g r a t i t u d e,1.0,positive,m,1,36,136,41,178.05028850000235,,,,,,,,,178.0359653000014,178.05028850000235,178.05028850000235,,178.61603800000012,m,0.5592356999986805,None,m,m,,,,06,001,2024-11-20_23h46.44.272,Lexical Decision Making,2024.1.5,None,2024-11-20 23h46.53.927116 +0530,
t r a i n,1.0,neutral,m,1,37,137,40,178.63142450000305,,,,,,,,,178.61661580000145,178.63142450000305,178.63142450000305,,179.04916300000332,m,0.415168999999878,None,m,m,,,,06,001,2024-11-20_23h46.44.272,Lexical Decision Making,2024.1.5,None,2024-11-20 23h46.53.927116 +0530,
d r e a m,1.0,positive,m,1,38,138,9,179.06411149999985,,,,,,,,,179.04968890000237,179.06411149999985,179.06411149999985,,179.53064559999984,m,0.45074550000208546,None,m,m,,,,06,001,2024-11-20_23h46.44.272,Lexical Decision Making,2024.1.5,None,2024-11-20 23h46.53.927116 +0530,
g r i e f,1.0,negative,m,1,39,139,62,179.54620030000297,,,,,,,,,179.5311692000032,179.54620030000297,179.54620030000297,,180.22836710000047,m,0.6695596999998088,None,m,m,,,,06,001,2024-11-20_23h46.44.272,Lexical Decision Making,2024.1.5,None,2024-11-20 23h46.53.927116 +0530,
a c h i e v e m e n t,1.0,positive,m,1,40,140,27,180.24396290000004,,,,,,,,,180.22904930000004,180.24396290000004,180.24396290000004,,181.1423773000024,m,0.8926050000009127,None,m,m,,,,06,001,2024-11-20_23h46.44.272,Lexical Decision Making,2024.1.5,None,2024-11-20 23h46.53.927116 +0530,
p l a r k,0.0,non-word,z,1,41,141,45,181.15774729999976,,,,,,,,,181.14291969999977,181.15774729999976,181.15774729999976,,182.0564422000025,z,0.8971244000022125,None,z,z,,,,06,001,2024-11-20_23h46.44.272,Lexical Decision Making,2024.1.5,None,2024-11-20 23h46.53.927116 +0530,
s o r r o w,1.0,negative,m,1,42,142,33,182.0719229000024,,,,,,,,,182.0569964000024,182.0719229000024,182.0719229000024,,182.73895930000072,m,0.6542169999993348,None,m,m,,,,06,001,2024-11-20_23h46.44.272,Lexical Decision Making,2024.1.5,None,2024-11-20 23h46.53.927116 +0530,
s a d n e s s,1.0,negative,m,1,43,143,65,182.75377990000197,,,,,,,,,182.73949790000188,182.75377990000197,182.75377990000197,,183.302817900003,m,0.5458832000003895,None,m,m,,,,06,001,2024-11-20_23h46.44.272,Lexical Decision Making,2024.1.5,None,2024-11-20 23h46.53.927116 +0530,
s u c c e s s,1.0,positive,m,1,44,144,35,183.31941759999972,,,,,,,,,183.3033581000018,183.31941759999972,183.31941759999972,,183.83479740000257,m,0.5057932999989134,None,m,m,,,,06,001,2024-11-20_23h46.44.272,Lexical Decision Making,2024.1.5,None,2024-11-20 23h46.53.927116 +0530,
q u i b l e n,0.0,non-word,z,1,45,145,91,183.85090260000288,,,,,,,,,183.83534160000272,183.85090260000288,183.85090260000288,,184.4837069000023,z,0.620689700001094,None,z,z,,,,06,001,2024-11-20_23h46.44.272,Lexical Decision Making,2024.1.5,None,2024-11-20 23h46.53.927116 +0530,
g r i n d l e,0.0,non-word,z,1,46,146,54,184.49920420000126,,,,,,,,,184.48423950000142,184.49920420000126,184.49920420000126,,185.11541200000283,z,0.599388500002533,None,z,z,,,,06,001,2024-11-20_23h46.44.272,Lexical Decision Making,2024.1.5,None,2024-11-20 23h46.53.927116 +0530,
w i n d o w,1.0,neutral,m,1,47,147,80,185.13054860000193,,,,,,,,,185.11592710000332,185.13054860000193,185.13054860000193,,185.63067750000118,m,0.4832994999997027,None,m,m,,,,06,001,2024-11-20_23h46.44.272,Lexical Decision Making,2024.1.5,None,2024-11-20 23h46.53.927116 +0530,
g r i n d l e,0.0,non-word,z,1,48,148,3,185.64611950000108,,,,,,,,,185.63120590000108,185.64611950000108,185.64611950000108,,186.37848959999974,z,0.7263304999978573,None,z,z,,,,06,001,2024-11-20_23h46.44.272,Lexical Decision Making,2024.1.5,None,2024-11-20 23h46.53.927116 +0530,
v i c t o r y,1.0,positive,m,1,49,149,25,186.39447140000266,,,,,,,,,186.3790184999998,186.39447140000266,186.39447140000266,,187.05961190000016,m,0.6517672999980277,None,m,m,,,,06,001,2024-11-20_23h46.44.272,Lexical Decision Making,2024.1.5,None,2024-11-20 23h46.53.927116 +0530,
a p p l e,1.0,neutral,m,1,50,150,32,187.07507550000082,,,,,,,,,187.06014450000293,187.07507550000082,187.07507550000082,,187.92409820000103,m,0.8368058000014571,None,m,m,,,,06,001,2024-11-20_23h46.44.272,Lexical Decision Making,2024.1.5,None,2024-11-20 23h46.53.927116 +0530,
c o m f o r t,1.0,positive,m,1,51,151,59,187.9396564000017,,,,,,,,,187.92477270000018,187.9396564000017,187.9396564000017,,188.42255920000025,m,0.4796892000013031,None,m,m,,,,06,001,2024-11-20_23h46.44.272,Lexical Decision Making,2024.1.5,None,2024-11-20 23h46.53.927116 +0530,
t w o r i k,0.0,non-word,z,1,52,152,93,188.438433000003,,,,,,,,,188.42308820000108,188.438433000003,188.438433000003,,189.10408900000039,z,0.6589101999998093,None,z,z,,,,06,001,2024-11-20_23h46.44.272,Lexical Decision Making,2024.1.5,None,2024-11-20 23h46.53.927116 +0530,
s m i l e,1.0,positive,m,1,53,153,55,189.11970700000165,,,,,,,,,189.1048922000009,189.11970700000165,189.11970700000165,,189.70321760000297,m,0.5755293000001984,None,m,m,,,,06,001,2024-11-20_23h46.44.272,Lexical Decision Making,2024.1.5,None,2024-11-20 23h46.53.927116 +0530,
c r i o u s,0.0,non-word,z,1,54,154,99,189.71866200000295,,,,,,,,,189.7037420000015,189.71866200000295,189.71866200000295,,190.51731660000223,z,0.7889574000000721,None,z,z,,,,06,001,2024-11-20_23h46.44.272,Lexical Decision Making,2024.1.5,None,2024-11-20 23h46.53.927116 +0530,
l o s s,1.0,negative,m,1,55,155,29,190.53246870000294,,,,,,,,,190.51788020000095,190.53246870000294,190.53246870000294,,191.0160504000014,m,0.4712219000030018,None,m,m,,,,06,001,2024-11-20_23h46.44.272,Lexical Decision Making,2024.1.5,None,2024-11-20 23h46.53.927116 +0530,
w a r,1.0,negative,m,1,56,156,67,191.03146320000087,,,,,,,,,191.01672790000157,191.03146320000087,191.03146320000087,,191.49819940000089,m,0.46245940000153496,None,m,m,,,,06,001,2024-11-20_23h46.44.272,Lexical Decision Making,2024.1.5,None,2024-11-20 23h46.53.927116 +0530,
p e n c i l,1.0,neutral,m,1,57,157,24,191.51318710000123,,,,,,,,,191.49878750000062,191.51318710000123,191.51318710000123,,192.22955340000044,m,0.7065006000011635,None,m,m,,,,06,001,2024-11-20_23h46.44.272,Lexical Decision Making,2024.1.5,None,2024-11-20 23h46.53.927116 +0530,
a n g e r,1.0,negative,m,1,58,158,15,192.24445900000137,,,,,,,,,192.23017120000077,192.24445900000137,192.24445900000137,,192.89461440000014,m,0.6441033000010066,None,m,m,,,,06,001,2024-11-20_23h46.44.272,Lexical Decision Making,2024.1.5,None,2024-11-20 23h46.53.927116 +0530,
f e a r f u l,1.0,negative,m,1,59,159,98,192.9097619000022,,,,,,,,,192.8952943000004,192.9097619000022,192.9097619000022,,193.62602310000148,m,0.7102133999978832,None,m,m,,,,06,001,2024-11-20_23h46.44.272,Lexical Decision Making,2024.1.5,None,2024-11-20 23h46.53.927116 +0530,
p e a c e,1.0,positive,m,1,60,160,89,193.64077920000273,,,,,,,,,193.62670870000147,193.64077920000273,193.64077920000273,,194.45610820000002,m,0.809427100000903,None,m,m,,,,06,001,2024-11-20_23h46.44.272,Lexical Decision Making,2024.1.5,None,2024-11-20 23h46.53.927116 +0530,
c l o c k,1.0,neutral,m,1,61,161,48,194.47178650000205,,,,,,,,,194.45662380000067,194.47178650000205,194.47178650000205,,194.98803390000103,m,0.506769700001314,None,m,m,,,,06,001,2024-11-20_23h46.44.272,Lexical Decision Making,2024.1.5,None,2024-11-20 23h46.53.927116 +0530,
g r i n d l e,0.0,non-word,z,1,62,162,17,195.00359430000026,,,,,,,,,194.98856340000202,195.00359430000026,195.00359430000026,,195.35406090000106,m,0.33851789999971515,None,m,z,,,,06,001,2024-11-20_23h46.44.272,Lexical Decision Making,2024.1.5,None,2024-11-20 23h46.53.927116 +0530,
t r a g e d y,1.0,negative,m,1,63,163,70,195.3693213000006,,,,,,,,,195.35484840000208,195.3693213000006,195.3693213000006,,196.31817050000245,m,0.9427596999994421,None,m,m,,,,06,001,2024-11-20_23h46.44.272,Lexical Decision Making,2024.1.5,None,2024-11-20 23h46.53.927116 +0530,
c h i n d l e,0.0,non-word,z,1,64,164,8,196.3335068000015,,,,,,,,,196.31869050000023,196.3335068000015,196.3335068000015,197.34742990000086,197.39779780000026,z,1.061170499997388,None,z,z,,,,06,001,2024-11-20_23h46.44.272,Lexical Decision Making,2024.1.5,None,2024-11-20 23h46.53.927116 +0530,
c a b l e,1.0,neutral,m,1,65,165,78,197.41374300000098,,,,,,,,,197.39833139999973,197.41374300000098,197.41374300000098,,198.0799549000003,m,0.6521066000022984,None,m,m,,,,06,001,2024-11-20_23h46.44.272,Lexical Decision Making,2024.1.5,None,2024-11-20 23h46.53.927116 +0530,
e x c i t e d,1.0,positive,m,1,66,166,10,198.0957656999999,,,,,,,,,198.08086970000295,198.0957656999999,198.0957656999999,199.10900320000292,199.95781859999988,m,1.8505538999997952,None,m,m,,,,06,001,2024-11-20_23h46.44.272,Lexical Decision Making,2024.1.5,None,2024-11-20 23h46.53.927116 +0530,
d r o n t,0.0,non-word,z,1,67,167,95,199.97374120000313,,,,,,,,,199.95834380000088,199.97374120000313,199.97374120000313,,200.60603020000053,z,0.615911299999425,None,z,z,,,,06,001,2024-11-20_23h46.44.272,Lexical Decision Making,2024.1.5,None,2024-11-20 23h46.53.927116 +0530,
l a w v e r,0.0,non-word,z,1,68,168,76,200.62166790000265,,,,,,,,,200.60662950000187,200.62166790000265,200.62166790000265,201.63562749999983,201.67007750000266,z,1.0323449999996228,None,z,z,,,,06,001,2024-11-20_23h46.44.272,Lexical Decision Making,2024.1.5,None,2024-11-20 23h46.53.927116 +0530,
w i n d o w,1.0,neutral,m,1,69,169,68,201.6856114000002,,,,,,,,,201.67080610000266,201.6856114000002,201.6856114000002,,202.60051759999988,m,0.9048476999996637,None,m,m,,,,06,001,2024-11-20_23h46.44.272,Lexical Decision Making,2024.1.5,None,2024-11-20 23h46.53.927116 +0530,
s m a g l e,0.0,non-word,z,1,70,170,53,202.6163411000016,,,,,,,,,202.60104990000036,202.6163411000016,202.6163411000016,,203.43291360000148,m,0.8153369000028761,None,m,z,,,,06,001,2024-11-20_23h46.44.272,Lexical Decision Making,2024.1.5,None,2024-11-20 23h46.53.927116 +0530,
p l a r k,0.0,non-word,z,1,71,171,16,203.44713240000056,,,,,,,,,203.43344400000205,203.44713240000056,203.44713240000056,,204.2298238000003,z,0.7767754999986209,None,z,z,,,,06,001,2024-11-20_23h46.44.272,Lexical Decision Making,2024.1.5,None,2024-11-20 23h46.53.927116 +0530,
g r u f f i l,0.0,non-word,z,1,72,172,49,204.24499840000135,,,,,,,,,204.23053750000327,204.24499840000135,204.24499840000135,,204.77828090000185,z,0.5283531000022776,None,z,z,,,,06,001,2024-11-20_23h46.44.272,Lexical Decision Making,2024.1.5,None,2024-11-20 23h46.53.927116 +0530,
c a l e n d a r,1.0,neutral,m,1,73,173,86,204.79372200000216,,,,,,,,,204.77891509999972,204.79372200000216,204.79372200000216,,205.52998300000036,m,0.7276423999974213,None,m,m,,,,06,001,2024-11-20_23h46.44.272,Lexical Decision Making,2024.1.5,None,2024-11-20 23h46.53.927116 +0530,
b l o r p,0.0,non-word,z,1,74,174,84,205.54172640000252,,,,,,,,,205.53052620000017,205.54172640000252,205.54172640000252,,206.24113020000004,z,0.6977073999987624,None,z,z,,,,06,001,2024-11-20_23h46.44.272,Lexical Decision Making,2024.1.5,None,2024-11-20 23h46.53.927116 +0530,
c l o u d,1.0,neutral,m,1,75,175,94,206.25624310000057,,,,,,,,,206.24165429999994,206.25624310000057,206.25624310000057,,207.08872210000118,m,0.8312463000002026,None,m,m,,,,06,001,2024-11-20_23h46.44.272,Lexical Decision Making,2024.1.5,None,2024-11-20 23h46.53.927116 +0530,
s a d,1.0,negative,m,1,76,176,87,207.10491950000142,,,,,,,,,207.08925010000166,207.10491950000142,207.10491950000142,,207.80308510000032,z,0.6921708999980183,None,z,m,,,,06,001,2024-11-20_23h46.44.272,Lexical Decision Making,2024.1.5,None,2024-11-20 23h46.53.927116 +0530,
b r a s k,0.0,non-word,z,1,77,177,79,207.8188050000026,,,,,,,,,207.80360310000106,207.8188050000026,207.8188050000026,,208.61761110000225,z,0.7972985999986122,None,z,z,,,,06,001,2024-11-20_23h46.44.272,Lexical Decision Making,2024.1.5,None,2024-11-20 23h46.53.927116 +0530,
d e s p a i r,1.0,negative,m,1,78,178,56,208.63315320000038,,,,,,,,,208.61814910000248,208.63315320000038,208.63315320000038,,209.21616920000088,z,0.5739106000000902,None,z,m,,,,06,001,2024-11-20_23h46.44.272,Lexical Decision Making,2024.1.5,None,2024-11-20 23h46.53.927116 +0530,
z o m p r e,0.0,non-word,z,1,79,179,73,209.23152219999974,,,,,,,,,209.21672610000314,209.23152219999974,209.23152219999974,,209.99754630000098,m,0.7596096999986912,None,m,z,,,,06,001,2024-11-20_23h46.44.272,Lexical Decision Making,2024.1.5,None,2024-11-20 23h46.53.927116 +0530,
p l o r,0.0,non-word,z,1,80,180,52,210.01270550000118,,,,,,,,,209.9980856000002,210.01270550000118,210.01270550000118,211.026733900002,211.47713860000295,z,1.460818700001255,None,z,z,,,,06,001,2024-11-20_23h46.44.272,Lexical Decision Making,2024.1.5,None,2024-11-20 23h46.53.927116 +0530,
t r e n k,0.0,non-word,z,1,81,181,57,211.49231500000315,,,,,,,,,211.4778221000015,211.49231500000315,211.49231500000315,212.50570470000093,212.6897753000012,z,1.181594599998789,None,z,z,,,,06,001,2024-11-20_23h46.44.272,Lexical Decision Making,2024.1.5,None,2024-11-20 23h46.53.927116 +0530,
c l o c k,1.0,neutral,m,1,82,182,20,212.70529770000212,,,,,,,,,212.69063780000215,212.70529770000212,212.70529770000212,,213.2220011999998,m,0.5143489999973099,None,m,m,,,,06,001,2024-11-20_23h46.44.272,Lexical Decision Making,2024.1.5,None,2024-11-20 23h46.53.927116 +0530,
d e l i g h t,1.0,positive,m,1,83,183,39,213.23739160000332,,,,,,,,,213.22255170000062,213.23739160000332,213.23739160000332,,213.82032210000034,m,0.5758539999987988,None,m,m,,,,06,001,2024-11-20_23h46.44.272,Lexical Decision Making,2024.1.5,None,2024-11-20 23h46.53.927116 +0530,
c e l e b r a t i o n,1.0,positive,m,1,84,184,75,213.83550860000105,,,,,,,,,213.820849300002,213.83550860000105,213.83550860000105,,214.65148050000062,m,0.8042169000000285,None,m,m,,,,06,001,2024-11-20_23h46.44.272,Lexical Decision Making,2024.1.5,None,2024-11-20 23h46.53.927116 +0530,
e x c i t e d,1.0,positive,m,1,85,185,72,214.66652450000038,,,,,,,,,214.65207999999984,214.66652450000038,214.66652450000038,215.68036580000262,215.8148609000018,m,1.1395294000030844,None,m,m,,,,06,001,2024-11-20_23h46.44.272,Lexical Decision Making,2024.1.5,None,2024-11-20 23h46.53.927116 +0530,
s m o r n,0.0,non-word,z,1,86,186,51,215.8299533999998,,,,,,,,,215.81538530000034,215.8299533999998,215.8299533999998,,216.42963070000042,z,0.5895020000025397,None,z,z,,,,06,001,2024-11-20_23h46.44.272,Lexical Decision Making,2024.1.5,None,2024-11-20 23h46.53.927116 +0530,
r e g r e t,1.0,negative,m,1,87,187,64,216.44495129999996,,,,,,,,,216.4301719000032,216.44495129999996,216.44495129999996,217.4592972999999,217.51024470000266,m,1.0498283999986597,None,m,m,,,,06,001,2024-11-20_23h46.44.272,Lexical Decision Making,2024.1.5,None,2024-11-20 23h46.53.927116 +0530,
v o b l i t,0.0,non-word,z,1,88,188,38,217.52622710000287,,,,,,,,,217.51096250000046,217.52622710000287,217.52622710000287,,218.04207719999977,m,0.5015119000017876,None,m,z,,,,06,001,2024-11-20_23h46.44.272,Lexical Decision Making,2024.1.5,None,2024-11-20 23h46.53.927116 +0530,
l a m p,1.0,neutral,m,1,89,189,42,218.05769580000197,,,,,,,,,218.04261680000127,218.05769580000197,218.05769580000197,219.07101560000228,219.27167160000317,m,1.2110682999991695,None,m,m,,,,06,001,2024-11-20_23h46.44.272,Lexical Decision Making,2024.1.5,None,2024-11-20 23h46.53.927116 +0530,
p a i n,1.0,negative,m,1,90,190,83,219.28758430000016,,,,,,,,,219.27219550000154,219.28758430000016,219.28758430000016,,219.97032910000053,m,0.6750729000013962,None,m,m,,,,06,001,2024-11-20_23h46.44.272,Lexical Decision Making,2024.1.5,None,2024-11-20 23h46.53.927116 +0530,
s w o r p y,0.0,non-word,z,1,91,191,69,219.98566130000108,,,,,,,,,219.97107479999977,219.98566130000108,219.98566130000108,,220.88426810000237,z,0.8896954999981972,None,z,z,,,,06,001,2024-11-20_23h46.44.272,Lexical Decision Making,2024.1.5,None,2024-11-20 23h46.53.927116 +0530,
c l i b b e t,0.0,non-word,z,1,92,192,12,220.89927680000255,,,,,,,,,220.88494110000102,220.89927680000255,220.89927680000255,,221.61522900000273,z,0.7056898000009824,None,z,z,,,,06,001,2024-11-20_23h46.44.272,Lexical Decision Making,2024.1.5,None,2024-11-20 23h46.53.927116 +0530,
d r i n t,0.0,non-word,z,1,93,193,23,221.63133949999974,,,,,,,,,221.61574810000093,221.63133949999974,221.63133949999974,,222.14785950000078,z,0.5059998000033374,None,z,z,,,,06,001,2024-11-20_23h46.44.272,Lexical Decision Making,2024.1.5,None,2024-11-20 23h46.53.927116 +0530,
s m o r n,0.0,non-word,z,1,94,194,14,222.1628423000002,,,,,,,,,222.1483920999999,222.1628423000002,222.1628423000002,,222.8454053000023,z,0.6698260000011942,None,z,z,,,,06,001,2024-11-20_23h46.44.272,Lexical Decision Making,2024.1.5,None,2024-11-20 23h46.53.927116 +0530,
s m i l e,1.0,positive,m,1,95,195,92,222.8610714000024,,,,,,,,,222.8459341000016,222.8610714000024,222.8610714000024,,223.39466110000285,m,0.5231024999993679,None,m,m,,,,06,001,2024-11-20_23h46.44.272,Lexical Decision Making,2024.1.5,None,2024-11-20 23h46.53.927116 +0530,
p e a c e,1.0,positive,m,1,96,196,97,223.40969770000083,,,,,,,,,223.39518000000317,223.40969770000083,223.40969770000083,,223.8755536000026,m,0.45253949999823817,None,m,m,,,,06,001,2024-11-20_23h46.44.272,Lexical Decision Making,2024.1.5,None,2024-11-20 23h46.53.927116 +0530,
m i s e r y,1.0,negative,m,1,97,197,34,223.89115830000082,,,,,,,,,223.87607540000317,223.89115830000082,223.89115830000082,,224.64031630000318,m,0.7464330999973754,None,m,m,,,,06,001,2024-11-20_23h46.44.272,Lexical Decision Making,2024.1.5,None,2024-11-20 23h46.53.927116 +0530,
d r i n t,0.0,non-word,z,1,98,198,36,224.655837600003,,,,,,,,,224.64084000000003,224.655837600003,224.655837600003,,225.43824160000077,z,0.7772979999972449,None,z,z,,,,06,001,2024-11-20_23h46.44.272,Lexical Decision Making,2024.1.5,None,2024-11-20 23h46.53.927116 +0530,
j o y f u l,1.0,positive,m,1,99,199,19,225.45365200000015,,,,,,,,,225.43896570000288,225.45365200000015,225.45365200000015,,225.98719450000135,m,0.527384400000301,None,m,m,,,,06,001,2024-11-20_23h46.44.272,Lexical Decision Making,2024.1.5,None,2024-11-20 23h46.53.927116 +0530,
v a b l i n,0.0,non-word,z,2,0,200,1,226.00229450000188,,,,,,,,,225.98773750000328,226.00229450000188,226.00229450000188,,226.7181668000012,z,0.7086490999972739,None,z,z,,,,06,001,2024-11-20_23h46.44.272,Lexical Decision Making,2024.1.5,None,2024-11-20 23h46.53.927116 +0530,
w i n d o w,1.0,neutral,m,2,1,201,80,226.73326140000063,,,,,,,,,226.7187038000011,226.73326140000063,226.73326140000063,,227.43297510000048,m,0.6870839000002888,None,m,m,,,,06,001,2024-11-20_23h46.44.272,Lexical Decision Making,2024.1.5,None,2024-11-20 23h46.53.927116 +0530,
c h i n d l e,0.0,non-word,z,2,2,202,8,227.44849539999996,,,,,,,,,227.43350190000274,227.44849539999996,227.44849539999996,,228.05548580000323,z,0.6044713000010233,None,z,z,,,,06,001,2024-11-20_23h46.44.272,Lexical Decision Making,2024.1.5,None,2024-11-20 23h46.53.927116 +0530,
c o m f o r t,1.0,positive,m,2,3,203,59,228.07958710000094,,,,,,,,,228.05618110000069,228.07958710000094,228.07958710000094,,228.87884530000156,m,0.7933666999997513,None,m,m,,,,06,001,2024-11-20_23h46.44.272,Lexical Decision Making,2024.1.5,None,2024-11-20 23h46.53.927116 +0530,
c h a i r,1.0,neutral,m,2,4,204,7,228.89410860000135,,,,,,,,,228.8793884000006,228.89410860000135,228.89410860000135,,229.44412530000045,z,0.5351093999997829,None,z,m,,,,06,001,2024-11-20_23h46.44.272,Lexical Decision Making,2024.1.5,None,2024-11-20 23h46.53.927116 +0530,
c a r p e t,1.0,neutral,m,2,5,205,85,229.45922880000217,,,,,,,,,229.44484370000282,229.45922880000217,229.45922880000217,230.4732249000008,230.67432300000291,m,1.2092298999996274,None,m,m,,,,06,001,2024-11-20_23h46.44.272,Lexical Decision Making,2024.1.5,None,2024-11-20 23h46.53.927116 +0530,
c h e e r f u l,1.0,positive,m,2,6,206,43,230.68900000000212,,,,,,,,,230.67490570000155,230.68900000000212,230.68900000000212,,231.2057977000004,m,0.504665100001148,None,m,m,,,,06,001,2024-11-20_23h46.44.272,Lexical Decision Making,2024.1.5,None,2024-11-20 23h46.53.927116 +0530,
r e g r e t,1.0,negative,m,2,7,207,64,231.2213257000003,,,,,,,,,231.20631780000258,231.2213257000003,231.2213257000003,,231.987034400001,m,0.7616610000004584,None,m,m,,,,06,001,2024-11-20_23h46.44.272,Lexical Decision Making,2024.1.5,None,2024-11-20 23h46.53.927116 +0530,
s m o r n,0.0,non-word,z,2,8,208,51,232.0026039000004,,,,,,,,,231.98771750000014,232.0026039000004,232.0026039000004,,232.81837110000197,z,0.806606300000567,None,z,z,,,,06,001,2024-11-20_23h46.44.272,Lexical Decision Making,2024.1.5,None,2024-11-20 23h46.53.927116 +0530,
c l i b b e t,0.0,non-word,z,2,9,209,12,232.83351279999988,,,,,,,,,232.81889390000288,232.83351279999988,232.83351279999988,,233.59901210000316,z,0.759442399998079,None,z,z,,,,06,001,2024-11-20_23h46.44.272,Lexical Decision Making,2024.1.5,None,2024-11-20 23h46.53.927116 +0530,
t r a g e d y,1.0,negative,m,2,10,210,70,233.6144430000022,,,,,,,,,233.5995494000017,233.6144430000022,233.6144430000022,234.62863629999993,234.8289994000006,m,1.2072743999997329,None,m,m,,,,06,001,2024-11-20_23h46.44.272,Lexical Decision Making,2024.1.5,None,2024-11-20 23h46.53.927116 +0530,
s a d n e s s,1.0,negative,m,2,11,211,65,234.84460070000205,,,,,,,,,234.8295145000011,234.84460070000205,234.84460070000205,,235.51071930000035,m,0.6644454000015685,None,m,m,,,,06,001,2024-11-20_23h46.44.272,Lexical Decision Making,2024.1.5,None,2024-11-20 23h46.53.927116 +0530,
a n g e r,1.0,negative,m,2,12,212,15,235.5261885,,,,,,,,,235.51124440000058,235.5261885,235.5261885,,235.75988080000025,m,0.22971569999936037,None,m,m,,,,06,001,2024-11-20_23h46.44.272,Lexical Decision Making,2024.1.5,None,2024-11-20 23h46.53.927116 +0530,
c l o u d,1.0,neutral,m,2,13,213,94,235.77534130000276,,,,,,,,,235.7604011000003,235.77534130000276,235.77534130000276,,236.3414257000004,m,0.5492306000014651,None,m,m,,,,06,001,2024-11-20_23h46.44.272,Lexical Decision Making,2024.1.5,None,2024-11-20 23h46.53.927116 +0530,
l a w v e r,0.0,non-word,z,2,14,214,76,236.3571695999999,,,,,,,,,236.3419732000002,236.3571695999999,236.3571695999999,,237.07284190000064,z,0.7115286999978707,None,z,z,,,,06,001,2024-11-20_23h46.44.272,Lexical Decision Making,2024.1.5,None,2024-11-20 23h46.53.927116 +0530,
s a d,1.0,negative,m,2,15,215,87,237.08829100000003,,,,,,,,,237.07336750000104,237.08829100000003,237.08829100000003,,237.72160110000186,m,0.6271302999994077,None,m,m,,,,06,001,2024-11-20_23h46.44.272,Lexical Decision Making,2024.1.5,None,2024-11-20 23h46.53.927116 +0530,
c a l e n d a r,1.0,neutral,m,2,16,216,86,237.73688250000123,,,,,,,,,237.72239120000086,237.73688250000123,237.73688250000123,,238.53613659999974,m,0.7862931000017852,None,m,m,,,,06,001,2024-11-20_23h46.44.272,Lexical Decision Making,2024.1.5,None,2024-11-20 23h46.53.927116 +0530,
f l o r t,0.0,non-word,z,2,17,217,11,238.55106670000168,,,,,,,,,238.53672480000023,238.55106670000168,238.55106670000168,,239.1836734000026,z,0.629284300001018,None,z,z,,,,06,001,2024-11-20_23h46.44.272,Lexical Decision Making,2024.1.5,None,2024-11-20 23h46.53.927116 +0530,
w a r,1.0,negative,m,2,18,218,67,239.202781400003,,,,,,,,,239.18425970000317,239.202781400003,239.202781400003,,239.84903680000207,m,0.6353213000002143,None,m,m,,,,06,001,2024-11-20_23h46.44.272,Lexical Decision Making,2024.1.5,None,2024-11-20 23h46.53.927116 +0530,
g r i n d l e,0.0,non-word,z,2,19,219,54,239.86428990000059,,,,,,,,,239.84989860000132,239.86428990000059,239.86428990000059,,240.4803645000029,z,0.6120143999978609,None,z,z,,,,06,001,2024-11-20_23h46.44.272,Lexical Decision Making,2024.1.5,None,2024-11-20 23h46.53.927116 +0530,
l a m p,1.0,neutral,m,2,20,220,18,240.49586030000137,,,,,,,,,240.48095530000137,240.49586030000137,240.49586030000137,,240.8294934000005,m,0.3198188999995182,None,m,m,,,,06,001,2024-11-20_23h46.44.272,Lexical Decision Making,2024.1.5,None,2024-11-20 23h46.53.927116 +0530,
f a i l u r e,1.0,negative,m,2,21,221,77,240.84504340000058,,,,,,,,,240.83001979999972,240.84504340000058,240.84504340000058,241.85869280000043,242.07620010000028,m,1.214493699997547,None,m,m,,,,06,001,2024-11-20_23h46.44.272,Lexical Decision Making,2024.1.5,None,2024-11-20 23h46.53.927116 +0530,
s t o n e,1.0,neutral,m,2,22,222,13,242.09144220000235,,,,,,,,,242.07671780000237,242.09144220000235,242.09144220000235,,242.92401270000119,m,0.8213197000004584,None,m,m,,,,06,001,2024-11-20_23h46.44.272,Lexical Decision Making,2024.1.5,None,2024-11-20 23h46.53.927116 +0530,
p l a r k,0.0,non-word,z,2,23,223,45,242.93934580000132,,,,,,,,,242.92472530000305,242.93934580000132,242.93934580000132,,243.53861090000282,z,0.5862449999985984,None,z,z,,,,06,001,2024-11-20_23h46.44.272,Lexical Decision Making,2024.1.5,None,2024-11-20 23h46.53.927116 +0530,
s u c c e s s,1.0,positive,m,2,24,224,35,243.5542497000024,,,,,,,,,243.53913269999975,243.5542497000024,243.5542497000024,,244.07050180000078,m,0.5115823000014643,None,m,m,,,,06,001,2024-11-20_23h46.44.272,Lexical Decision Making,2024.1.5,None,2024-11-20 23h46.53.927116 +0530,
t r e n k,0.0,non-word,z,2,25,225,57,244.08614020000095,,,,,,,,,244.07102790000135,244.08614020000095,244.08614020000095,,244.56882210000185,m,0.47131939999962924,None,m,z,,,,06,001,2024-11-20_23h46.44.272,Lexical Decision Making,2024.1.5,None,2024-11-20 23h46.53.927116 +0530,
b o o k,1.0,neutral,m,2,26,226,22,244.5847700000013,,,,,,,,,244.56935500000327,244.5847700000013,244.5847700000013,,245.31784060000064,m,0.7314478999978746,None,m,m,,,,06,001,2024-11-20_23h46.44.272,Lexical Decision Making,2024.1.5,None,2024-11-20 23h46.53.927116 +0530,
m u r k l e,0.0,non-word,z,2,27,227,66,245.3324345000001,,,,,,,,,245.31836490000205,245.3324345000001,245.3324345000001,,246.06512420000217,z,0.7172158000030322,None,z,z,,,,06,001,2024-11-20_23h46.44.272,Lexical Decision Making,2024.1.5,None,2024-11-20 23h46.53.927116 +0530,
d r i n t,0.0,non-word,z,2,28,228,23,246.08063240000047,,,,,,,,,246.0660306000027,246.08063240000047,246.08063240000047,,246.59751730000062,z,0.5069403999987117,None,z,z,,,,06,001,2024-11-20_23h46.44.272,Lexical Decision Making,2024.1.5,None,2024-11-20 23h46.53.927116 +0530,
g r u f f i l,0.0,non-word,z,2,29,229,49,246.6122875000001,,,,,,,,,246.5981227000011,246.6122875000001,246.6122875000001,,247.1288263000024,z,0.5007326000013563,None,z,z,,,,06,001,2024-11-20_23h46.44.272,Lexical Decision Making,2024.1.5,None,2024-11-20 23h46.53.927116 +0530,
v o b l i t,0.0,non-word,z,2,30,230,38,247.14447650000147,,,,,,,,,247.12934080000196,247.14447650000147,247.14447650000147,,247.97771170000124,z,0.8309343000000808,None,z,z,,,,06,001,2024-11-20_23h46.44.272,Lexical Decision Making,2024.1.5,None,2024-11-20 23h46.53.927116 +0530,
d e s p a i r,1.0,negative,m,2,31,231,56,247.99201090000133,,,,,,,,,247.97824150000088,247.99201090000133,247.99201090000133,,248.6246596000019,m,0.6236787000016193,None,m,m,,,,06,001,2024-11-20_23h46.44.272,Lexical Decision Making,2024.1.5,None,2024-11-20 23h46.53.927116 +0530,
s u n s h i n e,1.0,positive,m,2,32,232,30,248.6404419999999,,,,,,,,,248.62519460000112,248.6404419999999,248.6404419999999,,249.27347010000085,m,0.6155763999995543,None,m,m,,,,06,001,2024-11-20_23h46.44.272,Lexical Decision Making,2024.1.5,None,2024-11-20 23h46.53.927116 +0530,
h a p p y,1.0,positive,m,2,33,233,21,249.28839380000136,,,,,,,,,249.27400300000227,249.28839380000136,249.28839380000136,,249.7384226000031,m,0.4371145000004617,None,m,m,,,,06,001,2024-11-20_23h46.44.272,Lexical Decision Making,2024.1.5,None,2024-11-20 23h46.53.927116 +0530,
t a b l e,1.0,neutral,m,2,34,234,6,249.75395540000318,,,,,,,,,249.73896010000317,249.75395540000318,249.75395540000318,,250.58655160000126,m,0.8305030000010447,None,m,m,,,,06,001,2024-11-20_23h46.44.272,Lexical Decision Making,2024.1.5,None,2024-11-20 23h46.53.927116 +0530,
b l o r p,0.0,non-word,z,2,35,235,5,250.6017470000006,,,,,,,,,250.58710650000285,250.6017470000006,250.6017470000006,251.6155174000014,252.06562889999987,z,1.4620127999987744,None,z,z,,,,06,001,2024-11-20_23h46.44.272,Lexical Decision Making,2024.1.5,None,2024-11-20 23h46.53.927116 +0530,
g r i e f,1.0,negative,m,2,36,236,50,252.0807952000032,,,,,,,,,252.0661734000023,252.0807952000032,252.0807952000032,,252.69745200000034,m,0.6003400000008696,None,m,m,,,,06,001,2024-11-20_23h46.44.272,Lexical Decision Making,2024.1.5,None,2024-11-20 23h46.53.927116 +0530,
f e a r f u l,1.0,negative,m,2,37,237,2,252.71235960000195,,,,,,,,,252.69797430000108,252.71235960000195,252.71235960000195,,253.47782000000007,z,0.7492258999991463,None,z,m,,,,06,001,2024-11-20_23h46.44.272,Lexical Decision Making,2024.1.5,None,2024-11-20 23h46.53.927116 +0530,
a n g e r,1.0,negative,m,2,38,238,44,253.4935949999999,,,,,,,,,253.47836250000182,253.4935949999999,253.4935949999999,254.50728430000163,255.28994680000324,m,1.783630699999776,None,m,m,,,,06,001,2024-11-20_23h46.44.272,Lexical Decision Making,2024.1.5,None,2024-11-20 23h46.53.927116 +0530,
s m o r n,0.0,non-word,z,2,39,239,14,255.30550070000027,,,,,,,,,255.29047480000008,255.30550070000027,255.30550070000027,,256.1713415000013,m,0.8645724999987578,None,m,z,,,,06,001,2024-11-20_23h46.44.272,Lexical Decision Making,2024.1.5,None,2024-11-20 23h46.53.927116 +0530,
m i s e r y,1.0,negative,m,2,40,240,34,256.1864383000029,,,,,,,,,256.1720298,256.1864383000029,256.1864383000029,257.2003665000011,257.5334660000008,m,1.3390313999989303,None,m,m,,,,06,001,2024-11-20_23h46.44.272,Lexical Decision Making,2024.1.5,None,2024-11-20 23h46.53.927116 +0530,
s a d n e s s,1.0,negative,m,2,41,241,88,257.54946060000293,,,,,,,,,257.5339866000031,257.54946060000293,257.54946060000293,258.5630016000032,259.2791477000028,m,1.721112200000789,None,m,m,,,,06,001,2024-11-20_23h46.44.272,Lexical Decision Making,2024.1.5,None,2024-11-20 23h46.53.927116 +0530,
c r i o u s,0.0,non-word,z,2,42,242,99,259.2943199000001,,,,,,,,,259.2796694000026,259.2943199000001,259.2943199000001,,260.05992850000257,z,0.7498176000008243,None,z,z,,,,06,001,2024-11-20_23h46.44.272,Lexical Decision Making,2024.1.5,None,2024-11-20 23h46.53.927116 +0530,
d r o n t,0.0,non-word,z,2,43,243,95,260.0757379000024,,,,,,,,,260.0605035000008,260.0757379000024,260.0757379000024,,260.74202290000176,z,0.6539207000023453,None,z,z,,,,06,001,2024-11-20_23h46.44.272,Lexical Decision Making,2024.1.5,None,2024-11-20 23h46.53.927116 +0530,
a c h i e v e m e n t,1.0,positive,m,2,44,244,27,260.7570949000001,,,,,,,,,260.742540700001,260.7570949000001,260.7570949000001,,261.3731230000012,m,0.6050727000001643,None,m,m,,,,06,001,2024-11-20_23h46.44.272,Lexical Decision Making,2024.1.5,None,2024-11-20 23h46.53.927116 +0530,
b l o r p,0.0,non-word,z,2,45,245,84,261.3888372000001,,,,,,,,,261.3736415000021,261.3888372000001,261.3888372000001,,262.2044345000031,z,0.8137267000020074,None,z,z,,,,06,001,2024-11-20_23h46.44.272,Lexical Decision Making,2024.1.5,None,2024-11-20 23h46.53.927116 +0530,
c h e e r,1.0,positive,m,2,46,246,63,262.2198916000016,,,,,,,,,262.20499140000175,262.2198916000016,262.2198916000016,,263.1684210000021,m,0.9377447000006214,None,m,m,,,,06,001,2024-11-20_23h46.44.272,Lexical Decision Making,2024.1.5,None,2024-11-20 23h46.53.927116 +0530,
c a b l e,1.0,neutral,m,2,47,247,78,263.18365280000216,,,,,,,,,263.1689836000005,263.18365280000216,263.18365280000216,264.19750110000314,264.38182080000115,m,1.195622799998091,None,m,m,,,,06,001,2024-11-20_23h46.44.272,Lexical Decision Making,2024.1.5,None,2024-11-20 23h46.53.927116 +0530,
p e a c e,1.0,positive,m,2,48,248,89,264.39744150000115,,,,,,,,,264.3823400000001,264.39744150000115,264.39744150000115,,264.9806149000033,m,0.5663879999992787,None,m,m,,,,06,001,2024-11-20_23h46.44.272,Lexical Decision Making,2024.1.5,None,2024-11-20 23h46.53.927116 +0530,
g r i e f,1.0,negative,m,2,49,249,81,264.9956144000025,,,,,,,,,264.98155039999983,264.9956144000025,264.9956144000025,266.00958110000283,266.0437707000019,m,1.0389471999988018,None,m,m,,,,06,001,2024-11-20_23h46.44.272,Lexical Decision Making,2024.1.5,None,2024-11-20 23h46.53.927116 +0530,
p a i n,1.0,negative,m,2,50,250,83,266.05944330000057,,,,,,,,,266.0448389000012,266.05944330000057,266.05944330000057,267.0733470000014,267.0911691000001,m,1.0188296000014816,None,m,m,,,,06,001,2024-11-20_23h46.44.272,Lexical Decision Making,2024.1.5,None,2024-11-20 23h46.53.927116 +0530,
b l o r p,0.0,non-word,z,2,51,251,60,267.1065292000021,,,,,,,,,267.0917386000001,267.1065292000021,267.1065292000021,,267.7393112999998,z,0.6291058999995585,None,z,z,,,,06,001,2024-11-20_23h46.44.272,Lexical Decision Making,2024.1.5,None,2024-11-20 23h46.53.927116 +0530,
h a t e,1.0,negative,m,2,52,252,74,267.7552047999998,,,,,,,,,267.7398338000021,267.7552047999998,267.7552047999998,,268.5368727000023,z,0.7648654999975406,None,z,m,,,,06,001,2024-11-20_23h46.44.272,Lexical Decision Making,2024.1.5,None,2024-11-20 23h46.53.927116 +0530,
d e l i g h t,1.0,positive,m,2,53,253,39,268.55262140000195,,,,,,,,,268.53740010000183,268.55262140000195,268.55262140000195,,269.53432720000274,z,0.965440200001467,None,z,m,,,,06,001,2024-11-20_23h46.44.272,Lexical Decision Making,2024.1.5,None,2024-11-20 23h46.53.927116 +0530,
p l a r k,0.0,non-word,z,2,54,254,16,269.5498726000005,,,,,,,,,269.5348441000024,269.5498726000005,269.5498726000005,,270.3321399000015,z,0.7653759999993781,None,z,z,,,,06,001,2024-11-20_23h46.44.272,Lexical Decision Making,2024.1.5,None,2024-11-20 23h46.53.927116 +0530,
v i c t o r y,1.0,positive,m,2,55,255,25,270.3483412000023,,,,,,,,,270.33310370000254,270.3483412000023,270.3483412000023,,270.99686850000217,m,0.6436740000026475,None,m,m,,,,06,001,2024-11-20_23h46.44.272,Lexical Decision Making,2024.1.5,None,2024-11-20 23h46.53.927116 +0530,
g r i e f,1.0,negative,m,2,56,256,62,271.0127164000005,,,,,,,,,270.9974108000024,271.0127164000005,271.0127164000005,,271.72830850000173,m,0.7026521000007051,None,m,m,,,,06,001,2024-11-20_23h46.44.272,Lexical Decision Making,2024.1.5,None,2024-11-20 23h46.53.927116 +0530,
b r a s k,0.0,non-word,z,2,57,257,79,271.74371450000035,,,,,,,,,271.72902720000275,271.74371450000035,271.74371450000035,,272.39321060000293,z,0.6325429999997141,None,z,z,,,,06,001,2024-11-20_23h46.44.272,Lexical Decision Making,2024.1.5,None,2024-11-20 23h46.53.927116 +0530,
g r a t i t u d e,1.0,positive,m,2,58,258,41,272.4088346000026,,,,,,,,,272.3941233000005,272.4088346000026,272.4088346000026,,273.008422400002,m,0.5964716999988013,None,m,m,,,,06,001,2024-11-20_23h46.44.272,Lexical Decision Making,2024.1.5,None,2024-11-20 23h46.53.927116 +0530,
p e n c i l,1.0,neutral,m,2,59,259,24,273.0233098000026,,,,,,,,,273.00919910000084,273.0233098000026,273.0233098000026,,273.98952350000036,m,0.9595856000014464,None,m,m,,,,06,001,2024-11-20_23h46.44.272,Lexical Decision Making,2024.1.5,None,2024-11-20 23h46.53.927116 +0530,
e x c i t e d,1.0,positive,m,2,60,260,10,274.00468300000284,,,,,,,,,273.99005380000017,274.00468300000284,274.00468300000284,,274.6541384000011,m,0.6392371000001731,None,m,m,,,,06,001,2024-11-20_23h46.44.272,Lexical Decision Making,2024.1.5,None,2024-11-20 23h46.53.927116 +0530,
g l o r b y,0.0,non-word,z,2,61,261,28,274.6692058000008,,,,,,,,,274.65473550000024,274.6692058000008,274.6692058000008,,275.20265660000223,z,0.531692299999122,None,z,z,,,,06,001,2024-11-20_23h46.44.272,Lexical Decision Making,2024.1.5,None,2024-11-20 23h46.53.927116 +0530,
p e a c e,1.0,positive,m,2,62,262,97,275.217390400001,,,,,,,,,275.20319510000263,275.217390400001,275.217390400001,,276.0171268000013,m,0.7979988000006415,None,m,m,,,,06,001,2024-11-20_23h46.44.272,Lexical Decision Making,2024.1.5,None,2024-11-20 23h46.53.927116 +0530,
g r i n d l e,0.0,non-word,z,2,63,263,3,276.0320602000029,,,,,,,,,276.01764470000126,276.0320602000029,276.0320602000029,277.045920200002,278.2941400000018,z,2.25382769999851,None,z,z,,,,06,001,2024-11-20_23h46.44.272,Lexical Decision Making,2024.1.5,None,2024-11-20 23h46.53.927116 +0530,
h o p e,1.0,positive,m,2,64,264,46,278.30925870000283,,,,,,,,,278.2947376000011,278.30925870000283,278.30925870000283,,279.09160370000245,m,0.7668400000002293,None,m,m,,,,06,001,2024-11-20_23h46.44.272,Lexical Decision Making,2024.1.5,None,2024-11-20 23h46.53.927116 +0530,
l o s s,1.0,negative,m,2,65,265,29,279.1073501000028,,,,,,,,,279.0921448000008,279.1073501000028,279.1073501000028,280.12100380000265,280.15495080000255,m,1.0307251000012911,None,m,m,,,,06,001,2024-11-20_23h46.44.272,Lexical Decision Making,2024.1.5,None,2024-11-20 23h46.53.927116 +0530,
z o m p r e,0.0,non-word,z,2,66,266,73,280.1706660000018,,,,,,,,,280.1554793000032,280.1706660000018,280.1706660000018,,280.7537280000033,z,0.577481500000431,None,z,z,,,,06,001,2024-11-20_23h46.44.272,Lexical Decision Making,2024.1.5,None,2024-11-20 23h46.53.927116 +0530,
s w o r p y,0.0,non-word,z,2,67,267,69,280.7691741000017,,,,,,,,,280.7543220000007,280.7691741000017,280.7691741000017,,281.5347836000001,z,0.7487202999982401,None,z,z,,,,06,001,2024-11-20_23h46.44.272,Lexical Decision Making,2024.1.5,None,2024-11-20 23h46.53.927116 +0530,
s o r r o w,1.0,negative,m,2,68,268,33,281.55034460000024,,,,,,,,,281.5355277000017,281.55034460000024,281.55034460000024,,282.15006710000307,m,0.5840963000009651,None,m,m,,,,06,001,2024-11-20_23h46.44.272,Lexical Decision Making,2024.1.5,None,2024-11-20 23h46.53.927116 +0530,
l o v e,1.0,positive,m,2,69,269,0,282.16564890000154,,,,,,,,,282.15063790000204,282.16564890000154,282.16564890000154,,282.9642374000032,m,0.7819348999983049,None,m,m,,,,06,001,2024-11-20_23h46.44.272,Lexical Decision Making,2024.1.5,None,2024-11-20 23h46.53.927116 +0530,
p l o r,0.0,non-word,z,2,70,270,52,282.979927700002,,,,,,,,,282.9649175000013,282.979927700002,282.979927700002,,283.69570680000106,z,0.7078508000013244,None,z,z,,,,06,001,2024-11-20_23h46.44.272,Lexical Decision Making,2024.1.5,None,2024-11-20 23h46.53.927116 +0530,
c e l e b r a t i o n,1.0,positive,m,2,71,271,75,283.71111759999985,,,,,,,,,283.69644060000064,283.71111759999985,283.71111759999985,,284.3272184000016,m,0.6151270999980625,None,m,m,,,,06,001,2024-11-20_23h46.44.272,Lexical Decision Making,2024.1.5,None,2024-11-20 23h46.53.927116 +0530,
c r i t i c i s m,1.0,negative,m,2,72,272,26,284.3428058999998,,,,,,,,,284.32775870000114,284.3428058999998,284.3428058999998,,285.10820720000265,m,0.7615858000026492,None,m,m,,,,06,001,2024-11-20_23h46.44.272,Lexical Decision Making,2024.1.5,None,2024-11-20 23h46.53.927116 +0530,
c r y,1.0,negative,m,2,73,273,61,285.12399070000174,,,,,,,,,285.1087296000005,285.12399070000174,285.12399070000174,,285.75663910000003,m,0.6166365999997652,None,m,m,,,,06,001,2024-11-20_23h46.44.272,Lexical Decision Making,2024.1.5,None,2024-11-20 23h46.53.927116 +0530,
p l a n e t,1.0,neutral,m,2,74,274,47,285.77211180000086,,,,,,,,,285.75734530000045,285.77211180000086,285.77211180000086,,286.6372091000012,m,0.8585769999990589,None,m,m,,,,06,001,2024-11-20_23h46.44.272,Lexical Decision Making,2024.1.5,None,2024-11-20 23h46.53.927116 +0530,
d r e n k,0.0,non-word,z,2,75,275,4,286.6528053000002,,,,,,,,,286.6377476000016,286.6528053000002,286.6528053000002,,287.5517310000032,z,0.8970343000000867,None,z,z,,,,06,001,2024-11-20_23h46.44.272,Lexical Decision Making,2024.1.5,None,2024-11-20 23h46.53.927116 +0530,
t r a i n,1.0,neutral,m,2,76,276,40,287.5673491000016,,,,,,,,,287.5522564000021,287.5673491000016,287.5673491000016,,288.46555290000106,m,0.8944426999987627,None,m,m,,,,06,001,2024-11-20_23h46.44.272,Lexical Decision Making,2024.1.5,None,2024-11-20 23h46.53.927116 +0530,
s m i l e,1.0,positive,m,2,77,277,92,288.48121549999996,,,,,,,,,288.4660713000012,288.48121549999996,288.48121549999996,,289.0645230000009,m,0.5727704000019003,None,m,m,,,,06,001,2024-11-20_23h46.44.272,Lexical Decision Making,2024.1.5,None,2024-11-20 23h46.53.927116 +0530,
b o t t l e,1.0,neutral,m,2,78,278,58,289.0796721000006,,,,,,,,,289.0653265000001,289.0796721000006,289.0796721000006,,289.76207270000305,m,0.674962900000537,None,m,m,,,,06,001,2024-11-20_23h46.44.272,Lexical Decision Making,2024.1.5,None,2024-11-20 23h46.53.927116 +0530,
d r i n t,0.0,non-word,z,2,79,279,36,289.77803870000207,,,,,,,,,289.7625872999997,289.77803870000207,289.77803870000207,,290.5436761000019,z,0.7512499000004027,None,z,z,,,,06,001,2024-11-20_23h46.44.272,Lexical Decision Making,2024.1.5,None,2024-11-20 23h46.53.927116 +0530,
c l o c k,1.0,neutral,m,2,80,280,20,290.55915220000315,,,,,,,,,290.54483400000026,290.55915220000315,290.55915220000315,291.5731513999999,291.57467440000255,m,1.0139989000017522,None,m,m,,,,06,001,2024-11-20_23h46.44.272,Lexical Decision Making,2024.1.5,None,2024-11-20 23h46.53.927116 +0530,
s m i l e,1.0,positive,m,2,81,281,55,291.58953640000254,,,,,,,,,291.57520020000084,291.58953640000254,291.58953640000254,292.6036539000015,293.0037308000028,m,1.4054625000026135,None,m,m,,,,06,001,2024-11-20_23h46.44.272,Lexical Decision Making,2024.1.5,None,2024-11-20 23h46.53.927116 +0530,
l a m p,1.0,neutral,m,2,82,282,42,293.0191311000017,,,,,,,,,293.00451500000054,293.0191311000017,293.0191311000017,,293.7684881000023,m,0.7323118000022077,None,m,m,,,,06,001,2024-11-20_23h46.44.272,Lexical Decision Making,2024.1.5,None,2024-11-20 23h46.53.927116 +0530,
c l o c k,1.0,neutral,m,2,83,283,48,293.78332840000076,,,,,,,,,293.7694568000006,293.78332840000076,293.78332840000076,294.79759560000093,294.9151543000007,m,1.1186844000003475,None,m,m,,,,06,001,2024-11-20_23h46.44.272,Lexical Decision Making,2024.1.5,None,2024-11-20 23h46.53.927116 +0530,
m e t r o,1.0,neutral,m,2,84,284,96,294.9311026000032,,,,,,,,,294.9192509000022,294.9311026000032,294.9311026000032,,295.79719340000156,m,0.8647504000000481,None,m,m,,,,06,001,2024-11-20_23h46.44.272,Lexical Decision Making,2024.1.5,None,2024-11-20 23h46.53.927116 +0530,
f e a r f u l,1.0,negative,m,2,85,285,98,295.8126695000028,,,,,,,,,295.79772109999976,295.8126695000028,295.8126695000028,,296.42904960000305,m,0.6145236999982444,None,m,m,,,,06,001,2024-11-20_23h46.44.272,Lexical Decision Making,2024.1.5,None,2024-11-20 23h46.53.927116 +0530,
q u i b l e n,0.0,non-word,z,2,86,286,91,296.4445824000031,,,,,,,,,296.42990530000316,296.4445824000031,296.4445824000031,,296.92734420000124,m,0.4730483000021195,None,m,z,,,,06,001,2024-11-20_23h46.44.272,Lexical Decision Making,2024.1.5,None,2024-11-20 23h46.53.927116 +0530,
z a r f e t,0.0,non-word,z,2,87,287,31,296.9427984000031,,,,,,,,,296.9278848000031,296.9427984000031,296.9427984000031,,297.907862,z,0.9547112000000197,None,z,z,,,,06,001,2024-11-20_23h46.44.272,Lexical Decision Making,2024.1.5,None,2024-11-20 23h46.53.927116 +0530,
a p p l e,1.0,neutral,m,2,88,288,32,297.9234694000006,,,,,,,,,297.90838129999975,297.9234694000006,297.9234694000006,298.93734250000125,299.3529716000012,m,1.413497699999425,None,m,m,,,,06,001,2024-11-20_23h46.44.272,Lexical Decision Making,2024.1.5,None,2024-11-20 23h46.53.927116 +0530,
l o m e b,0.0,non-word,z,2,89,289,90,299.3683058000024,,,,,,,,,299.3534897999998,299.3683058000024,299.3683058000024,,300.16741700000057,z,0.7925652000012633,None,z,z,,,,06,001,2024-11-20_23h46.44.272,Lexical Decision Making,2024.1.5,None,2024-11-20 23h46.53.927116 +0530,
s m a g l e,0.0,non-word,z,2,90,290,53,300.1828695000004,,,,,,,,,300.16793490000055,300.1828695000004,300.1828695000004,301.1968349000017,301.21469799999977,z,1.0233818999986397,None,z,z,,,,06,001,2024-11-20_23h46.44.272,Lexical Decision Making,2024.1.5,None,2024-11-20 23h46.53.927116 +0530,
w i n d o w,1.0,neutral,m,2,91,291,68,301.22984440000073,,,,,,,,,301.2152265000004,301.22984440000073,301.22984440000073,,302.1616434000025,m,0.9193230999990192,None,m,m,,,,06,001,2024-11-20_23h46.44.272,Lexical Decision Making,2024.1.5,None,2024-11-20 23h46.53.927116 +0530,
g r i n d l e,0.0,non-word,z,2,92,292,17,302.17752100000143,,,,,,,,,302.1626200999999,302.17752100000143,302.17752100000143,303.1911732000008,303.7077872000009,z,1.5154164000014134,None,z,z,,,,06,001,2024-11-20_23h46.44.272,Lexical Decision Making,2024.1.5,None,2024-11-20 23h46.53.927116 +0530,
t w o r i k,0.0,non-word,z,2,93,293,93,303.7230309000006,,,,,,,,,303.7091494000015,303.7230309000006,303.7230309000006,,304.33913830000165,z,0.6021623000015097,None,z,z,,,,06,001,2024-11-20_23h46.44.272,Lexical Decision Making,2024.1.5,None,2024-11-20 23h46.53.927116 +0530,
p e n c i l,1.0,neutral,m,2,94,294,37,304.35465430000113,,,,,,,,,304.3398474000023,304.35465430000113,304.35465430000113,305.36887560000105,305.37015820000306,m,1.0038199000009627,None,m,m,,,,06,001,2024-11-20_23h46.44.272,Lexical Decision Making,2024.1.5,None,2024-11-20 23h46.53.927116 +0530,
d r e a m,1.0,positive,m,2,95,295,9,305.38483650000126,,,,,,,,,305.3710945000021,305.38483650000126,305.38483650000126,306.3989489000014,306.6659501000031,m,1.2642554000012751,None,m,m,,,,06,001,2024-11-20_23h46.44.272,Lexical Decision Making,2024.1.5,None,2024-11-20 23h46.53.927116 +0530,
m o u n t a i n,1.0,neutral,m,2,96,296,71,306.6814813000019,,,,,,,,,306.6667613999998,306.6814813000019,306.6814813000019,,307.3477576000005,m,0.6598475999999209,None,m,m,,,,06,001,2024-11-20_23h46.44.272,Lexical Decision Making,2024.1.5,None,2024-11-20 23h46.53.927116 +0530,
e x c i t e d,1.0,positive,m,2,97,297,72,307.36311600000045,,,,,,,,,307.3485789000006,307.36311600000045,307.36311600000045,,307.69693990000087,m,0.3240432000020519,None,m,m,,,,06,001,2024-11-20_23h46.44.272,Lexical Decision Making,2024.1.5,None,2024-11-20 23h46.53.927116 +0530,
j o y f u l,1.0,positive,m,2,98,298,19,307.7118784000013,,,,,,,,,307.6975197000029,307.7118784000013,307.7118784000013,,308.4783935000014,m,0.7639939000000595,None,m,m,,,,06,001,2024-11-20_23h46.44.272,Lexical Decision Making,2024.1.5,None,2024-11-20 23h46.53.927116 +0530,
k i n d n e s s,1.0,positive,m,2,99,299,82,308.49341430000277,,,,,,,,,308.4789125000025,308.49341430000277,308.49341430000277,,309.39255520000006,m,0.8947344000007433,None,m,m,,,,06,001,2024-11-20_23h46.44.272,Lexical Decision Making,2024.1.5,None,2024-11-20 23h46.53.927116 +0530,
s w o r p y,0.0,non-word,z,3,0,300,69,309.40769790000195,,,,,,,,,309.3934850000005,309.40769790000195,309.40769790000195,310.4221049000007,310.53893380000227,z,1.1157980999996653,None,z,z,,,,06,001,2024-11-20_23h46.44.272,Lexical Decision Making,2024.1.5,None,2024-11-20 23h46.53.927116 +0530,
g r i e f,1.0,negative,m,3,1,301,62,310.55455989999973,,,,,,,,,310.5394542000031,310.55455989999973,310.55455989999973,,311.2533719000021,m,0.6949822999995376,None,m,m,,,,06,001,2024-11-20_23h46.44.272,Lexical Decision Making,2024.1.5,None,2024-11-20 23h46.53.927116 +0530,
d r o n t,0.0,non-word,z,3,2,302,95,311.26911550000295,,,,,,,,,311.253891700002,311.26911550000295,311.26911550000295,,312.00193280000167,z,0.7224505999984103,None,z,z,,,,06,001,2024-11-20_23h46.44.272,Lexical Decision Making,2024.1.5,None,2024-11-20 23h46.53.927116 +0530,
a c h i e v e m e n t,1.0,positive,m,3,3,303,27,312.01719960000264,,,,,,,,,312.0026764000031,312.01719960000264,312.01719960000264,313.03066350000154,313.31562680000206,m,1.2812098000031256,None,m,m,,,,06,001,2024-11-20_23h46.44.272,Lexical Decision Making,2024.1.5,None,2024-11-20 23h46.53.927116 +0530,
l a w v e r,0.0,non-word,z,3,4,304,76,313.33064990000275,,,,,,,,,313.31615560000137,313.33064990000275,313.33064990000275,,313.9302462000014,z,0.5870010000035109,None,z,z,,,,06,001,2024-11-20_23h46.44.272,Lexical Decision Making,2024.1.5,None,2024-11-20 23h46.53.927116 +0530,
s m i l e,1.0,positive,m,3,5,305,55,313.9452213000004,,,,,,,,,313.930859600001,313.9452213000004,313.9452213000004,,314.66110750000007,m,0.7144890000017767,None,m,m,,,,06,001,2024-11-20_23h46.44.272,Lexical Decision Making,2024.1.5,None,2024-11-20 23h46.53.927116 +0530,
s t o n e,1.0,neutral,m,3,6,306,13,314.676500900001,,,,,,,,,314.6616270000013,314.676500900001,314.676500900001,,315.3651052000023,m,0.6767490000020189,None,m,m,,,,06,001,2024-11-20_23h46.44.272,Lexical Decision Making,2024.1.5,None,2024-11-20 23h46.53.927116 +0530,
a n g e r,1.0,negative,m,3,7,307,44,315.37454760000037,,,,,,,,,315.36562830000184,315.37454760000037,315.37454760000037,,315.95779080000284,m,0.5800467000008211,None,m,m,,,,06,001,2024-11-20_23h46.44.272,Lexical Decision Making,2024.1.5,None,2024-11-20 23h46.53.927116 +0530,
m u r k l e,0.0,non-word,z,3,8,308,66,315.9730999000021,,,,,,,,,315.9583358000018,315.9730999000021,315.9730999000021,,316.72231509999983,z,0.7364554000014323,None,z,z,,,,06,001,2024-11-20_23h46.44.272,Lexical Decision Making,2024.1.5,None,2024-11-20 23h46.53.927116 +0530,
l o v e,1.0,positive,m,3,9,309,0,316.7377239000016,,,,,,,,,316.72285980000015,316.7377239000016,316.7377239000016,317.7514854000001,317.7692902000017,m,1.0190514999994775,None,m,m,,,,06,001,2024-11-20_23h46.44.272,Lexical Decision Making,2024.1.5,None,2024-11-20 23h46.53.927116 +0530,
d r e n k,0.0,non-word,z,3,10,310,4,317.78481720000127,,,,,,,,,317.76984930000253,317.78481720000127,317.78481720000127,,318.48433710000245,m,0.6854478000022937,None,m,z,,,,06,001,2024-11-20_23h46.44.272,Lexical Decision Making,2024.1.5,None,2024-11-20 23h46.53.927116 +0530,
s a d n e s s,1.0,negative,m,3,11,311,88,318.5000859000029,,,,,,,,,318.4850495999999,318.5000859000029,318.5000859000029,,319.348077300001,m,0.8425151000010374,None,m,m,,,,06,001,2024-11-20_23h46.44.272,Lexical Decision Making,2024.1.5,None,2024-11-20 23h46.53.927116 +0530,
f e a r f u l,1.0,negative,m,3,12,312,2,319.36859950000144,,,,,,,,,319.3486023000005,319.36859950000144,319.36859950000144,,320.2457064000009,m,0.8728571999999986,None,m,m,,,,06,001,2024-11-20_23h46.44.272,Lexical Decision Making,2024.1.5,None,2024-11-20 23h46.53.927116 +0530,
w i n d o w,1.0,neutral,m,3,13,313,80,320.2625435000009,,,,,,,,,320.24622600000293,320.2625435000009,320.2625435000009,321.2752845000032,322.83852860000115,z,2.5744988999977068,None,z,m,,,,06,001,2024-11-20_23h46.44.272,Lexical Decision Making,2024.1.5,None,2024-11-20 23h46.53.927116 +0530,
s m o r n,0.0,non-word,z,3,14,314,14,322.8541206000009,,,,,,,,,322.8392332000003,322.8541206000009,322.8541206000009,323.8679806,323.8860218000009,z,1.0165682999977435,None,z,z,,,,06,001,2024-11-20_23h46.44.272,Lexical Decision Making,2024.1.5,None,2024-11-20 23h46.53.927116 +0530,
g r i n d l e,0.0,non-word,z,3,15,315,54,323.9013049000023,,,,,,,,,323.88657050000256,323.9013049000023,323.9013049000023,,324.61673300000257,z,0.7118780000018887,None,z,z,,,,06,001,2024-11-20_23h46.44.272,Lexical Decision Making,2024.1.5,None,2024-11-20 23h46.53.927116 +0530,
m i s e r y,1.0,negative,m,3,16,316,34,324.63279580000017,,,,,,,,,324.6172695000023,324.63279580000017,324.63279580000017,,325.58129330000156,m,0.9396708000022045,None,m,m,,,,06,001,2024-11-20_23h46.44.272,Lexical Decision Making,2024.1.5,None,2024-11-20 23h46.53.927116 +0530,
c l o c k,1.0,neutral,m,3,17,317,48,325.59666840000136,,,,,,,,,325.58182020000095,325.59666840000136,325.59666840000136,326.6102404000012,326.8442148000031,m,1.2434100000027684,None,m,m,,,,06,001,2024-11-20_23h46.44.272,Lexical Decision Making,2024.1.5,None,2024-11-20 23h46.53.927116 +0530,
d e s p a i r,1.0,negative,m,3,18,318,56,326.85976140000275,,,,,,,,,326.84516989999975,326.85976140000275,326.85976140000275,,327.3930192000007,m,0.5247194000003219,None,m,m,,,,06,001,2024-11-20_23h46.44.272,Lexical Decision Making,2024.1.5,None,2024-11-20 23h46.53.927116 +0530,
p l o r,0.0,non-word,z,3,19,319,52,327.4083071000023,,,,,,,,,327.3935427000033,327.4083071000023,327.4083071000023,,328.0741408000031,z,0.6563633000005211,None,z,z,,,,06,001,2024-11-20_23h46.44.272,Lexical Decision Making,2024.1.5,None,2024-11-20 23h46.53.927116 +0530,
c a l e n d a r,1.0,neutral,m,3,20,320,86,328.08987200000047,,,,,,,,,328.0747314,328.08987200000047,328.08987200000047,,328.7556637000016,m,0.6571430000003602,None,m,m,,,,06,001,2024-11-20_23h46.44.272,Lexical Decision Making,2024.1.5,None,2024-11-20 23h46.53.927116 +0530,
s o r r o w,1.0,negative,m,3,21,321,33,328.77100340000106,,,,,,,,,328.75621760000286,328.77100340000106,328.77100340000106,,329.7199275000021,m,0.94284979999793,None,m,m,,,,06,001,2024-11-20_23h46.44.272,Lexical Decision Making,2024.1.5,None,2024-11-20 23h46.53.927116 +0530,
p e a c e,1.0,positive,m,3,22,322,89,329.7354059999998,,,,,,,,,329.72044280000046,329.7354059999998,329.7354059999998,,330.68415620000087,m,0.9376955999978236,None,m,m,,,,06,001,2024-11-20_23h46.44.272,Lexical Decision Making,2024.1.5,None,2024-11-20 23h46.53.927116 +0530,
k i n d n e s s,1.0,positive,m,3,23,323,82,330.69937690000006,,,,,,,,,330.68467090000195,330.69937690000006,330.69937690000006,,331.6646690000016,m,0.9569872000029136,None,m,m,,,,06,001,2024-11-20_23h46.44.272,Lexical Decision Making,2024.1.5,None,2024-11-20 23h46.53.927116 +0530,
s a d n e s s,1.0,negative,m,3,24,324,65,331.6800382000001,,,,,,,,,331.6651872000002,331.6800382000001,331.6800382000001,332.69372830000066,333.1605011000029,m,1.4751193000010971,None,m,m,,,,06,001,2024-11-20_23h46.44.272,Lexical Decision Making,2024.1.5,None,2024-11-20 23h46.53.927116 +0530,
d r e a m,1.0,positive,m,3,25,325,9,333.17612830000144,,,,,,,,,333.1610498000009,333.17612830000144,333.17612830000144,334.19010940000226,334.75680210000064,m,1.5718602999986615,None,m,m,,,,06,001,2024-11-20_23h46.44.272,Lexical Decision Making,2024.1.5,None,2024-11-20 23h46.53.927116 +0530,
c r y,1.0,negative,m,3,26,326,61,334.77155830000265,,,,,,,,,334.7573751000018,334.77155830000265,334.77155830000265,,335.2880111000013,m,0.5043552999995882,None,m,m,,,,06,001,2024-11-20_23h46.44.272,Lexical Decision Making,2024.1.5,None,2024-11-20 23h46.53.927116 +0530,
b o o k,1.0,neutral,m,3,27,327,22,335.3032345000029,,,,,,,,,335.2886713000007,335.3032345000029,335.3032345000029,,335.8699176000009,m,0.5542099000012968,None,m,m,,,,06,001,2024-11-20_23h46.44.272,Lexical Decision Making,2024.1.5,None,2024-11-20 23h46.53.927116 +0530,
c h e e r,1.0,positive,m,3,28,328,63,335.88534100000106,,,,,,,,,335.8704358000032,335.88534100000106,335.88534100000106,,336.3516866000027,m,0.463033700001688,None,m,m,,,,06,001,2024-11-20_23h46.44.272,Lexical Decision Making,2024.1.5,None,2024-11-20 23h46.53.927116 +0530,
t a b l e,1.0,neutral,m,3,29,329,6,336.3671865000033,,,,,,,,,336.35221020000245,336.3671865000033,336.3671865000033,,336.80075540000325,m,0.4175604000010935,None,m,m,,,,06,001,2024-11-20_23h46.44.272,Lexical Decision Making,2024.1.5,None,2024-11-20 23h46.53.927116 +0530,
z o m p r e,0.0,non-word,z,3,30,330,73,336.81598190000295,,,,,,,,,336.8014977000021,336.81598190000295,336.81598190000295,,337.48222870000245,z,0.6521652000010363,None,z,z,,,,06,001,2024-11-20_23h46.44.272,Lexical Decision Making,2024.1.5,None,2024-11-20 23h46.53.927116 +0530,
c o m f o r t,1.0,positive,m,3,31,331,59,337.4977437000016,,,,,,,,,337.4828873000006,337.4977437000016,337.4977437000016,,338.21292840000024,m,0.7080096999998204,None,m,m,,,,06,001,2024-11-20_23h46.44.272,Lexical Decision Making,2024.1.5,None,2024-11-20 23h46.53.927116 +0530,
m e t r o,1.0,neutral,m,3,32,332,96,338.22855840000193,,,,,,,,,338.2135217000032,338.22855840000193,338.22855840000193,339.24265500000183,339.39355010000145,m,1.1577313999987382,None,m,m,,,,06,001,2024-11-20_23h46.44.272,Lexical Decision Making,2024.1.5,None,2024-11-20 23h46.53.927116 +0530,
h a p p y,1.0,positive,m,3,33,333,21,339.4088597000009,,,,,,,,,339.39406520000193,339.4088597000009,339.4088597000009,,340.0582934000013,z,0.6466701999997895,None,z,m,,,,06,001,2024-11-20_23h46.44.272,Lexical Decision Making,2024.1.5,None,2024-11-20 23h46.53.927116 +0530,
a p p l e,1.0,neutral,m,3,34,334,32,340.0740259000013,,,,,,,,,340.0588321000032,340.0740259000013,340.0740259000013,341.0878385000033,341.18843560000096,m,1.108128799998667,None,m,m,,,,06,001,2024-11-20_23h46.44.272,Lexical Decision Making,2024.1.5,None,2024-11-20 23h46.53.927116 +0530,
t r e n k,0.0,non-word,z,3,35,335,57,341.20409629999995,,,,,,,,,341.18896940000195,341.20409629999995,341.20409629999995,,341.91934930000207,z,0.7065971999982139,None,z,z,,,,06,001,2024-11-20_23h46.44.272,Lexical Decision Making,2024.1.5,None,2024-11-20 23h46.53.927116 +0530,
p e n c i l,1.0,neutral,m,3,36,336,24,341.9351377000021,,,,,,,,,341.9198710000019,341.9351377000021,341.9351377000021,,342.5848081000004,m,0.6377081999999064,None,m,m,,,,06,001,2024-11-20_23h46.44.272,Lexical Decision Making,2024.1.5,None,2024-11-20 23h46.53.927116 +0530,
q u i b l e n,0.0,non-word,z,3,37,337,91,342.6000636000026,,,,,,,,,342.5853395000013,342.6000636000026,342.6000636000026,,343.44914100000096,z,0.8461142000014661,None,z,z,,,,06,001,2024-11-20_23h46.44.272,Lexical Decision Making,2024.1.5,None,2024-11-20 23h46.53.927116 +0530,
g r a t i t u d e,1.0,positive,m,3,38,338,41,343.46445080000194,,,,,,,,,343.45002569999997,343.46445080000194,343.46445080000194,,344.3970106000015,m,0.9155882999984897,None,m,m,,,,06,001,2024-11-20_23h46.44.272,Lexical Decision Making,2024.1.5,None,2024-11-20 23h46.53.927116 +0530,
g r i e f,1.0,negative,m,3,39,339,50,344.41188740000143,,,,,,,,,344.3978935000014,344.41188740000143,344.41188740000143,,345.36075410000194,m,0.93944570000167,None,m,m,,,,06,001,2024-11-20_23h46.44.272,Lexical Decision Making,2024.1.5,None,2024-11-20 23h46.53.927116 +0530,
t r a i n,1.0,neutral,m,3,40,340,40,345.3760478000004,,,,,,,,,345.36129280000023,345.3760478000004,345.3760478000004,,346.24165710000307,m,0.8596013999995193,None,m,m,,,,06,001,2024-11-20_23h46.44.272,Lexical Decision Making,2024.1.5,None,2024-11-20 23h46.53.927116 +0530,
g r i e f,1.0,negative,m,3,41,341,81,346.2570450000021,,,,,,,,,346.24217839999983,346.2570450000021,346.2570450000021,,346.92371430000276,m,0.6600349000000278,None,m,m,,,,06,001,2024-11-20_23h46.44.272,Lexical Decision Making,2024.1.5,None,2024-11-20 23h46.53.927116 +0530,
p l a n e t,1.0,neutral,m,3,42,342,47,346.9384311000031,,,,,,,,,346.9242817000013,346.9384311000031,346.9384311000031,,347.8042122000006,m,0.8621992000007594,None,m,m,,,,06,001,2024-11-20_23h46.44.272,Lexical Decision Making,2024.1.5,None,2024-11-20 23h46.53.927116 +0530,
d r i n t,0.0,non-word,z,3,43,343,36,347.8196543000013,,,,,,,,,347.8047542000022,347.8196543000013,347.8196543000013,,348.5349814000001,z,0.7138771999998426,None,z,z,,,,06,001,2024-11-20_23h46.44.272,Lexical Decision Making,2024.1.5,None,2024-11-20 23h46.53.927116 +0530,
b r a s k,0.0,non-word,z,3,44,344,79,348.55062689999977,,,,,,,,,348.53549510000084,348.55062689999977,348.55062689999977,,349.21687759999986,z,0.6570620000020426,None,z,z,,,,06,001,2024-11-20_23h46.44.272,Lexical Decision Making,2024.1.5,None,2024-11-20 23h46.53.927116 +0530,
j o y f u l,1.0,positive,m,3,45,345,19,349.2318696000002,,,,,,,,,349.2174152000007,349.2318696000002,349.2318696000002,,350.21428930000184,m,0.967050700000982,None,m,m,,,,06,001,2024-11-20_23h46.44.272,Lexical Decision Making,2024.1.5,None,2024-11-20 23h46.53.927116 +0530,
s m o r n,0.0,non-word,z,3,46,346,51,350.22915439999997,,,,,,,,,350.2150704000014,350.22915439999997,350.22915439999997,,351.1945229000012,z,0.9530446000026132,None,z,z,,,,06,001,2024-11-20_23h46.44.272,Lexical Decision Making,2024.1.5,None,2024-11-20 23h46.53.927116 +0530,
p e a c e,1.0,positive,m,3,47,347,97,351.2098705000026,,,,,,,,,351.19510360000277,351.2098705000026,351.2098705000026,,352.09269290000157,m,0.8754636000012397,None,m,m,,,,06,001,2024-11-20_23h46.44.272,Lexical Decision Making,2024.1.5,None,2024-11-20 23h46.53.927116 +0530,
s a d,1.0,negative,m,3,48,348,87,352.10764100000233,,,,,,,,,352.0932176000024,352.10764100000233,352.10764100000233,353.12146230000144,353.27307570000266,m,1.1607830000029935,None,m,m,,,,06,001,2024-11-20_23h46.44.272,Lexical Decision Making,2024.1.5,None,2024-11-20 23h46.53.927116 +0530,
s u n s h i n e,1.0,positive,m,3,49,349,30,353.2881856000022,,,,,,,,,353.2736330000007,353.2881856000022,353.2881856000022,,354.06954750000295,m,0.7650582999995095,None,m,m,,,,06,001,2024-11-20_23h46.44.272,Lexical Decision Making,2024.1.5,None,2024-11-20 23h46.53.927116 +0530,
p l a r k,0.0,non-word,z,3,50,350,16,354.0856227000004,,,,,,,,,354.0701939999999,354.0856227000004,354.0856227000004,,354.7683999000001,z,0.67138729999715,None,z,z,,,,06,001,2024-11-20_23h46.44.272,Lexical Decision Making,2024.1.5,None,2024-11-20 23h46.53.927116 +0530,
w i n d o w,1.0,neutral,m,3,51,351,68,354.7844342999997,,,,,,,,,354.76891660000183,354.7844342999997,354.7844342999997,,355.1836340000009,z,0.3940044000009948,None,z,m,,,,06,001,2024-11-20_23h46.44.272,Lexical Decision Making,2024.1.5,None,2024-11-20 23h46.53.927116 +0530,
c r i o u s,0.0,non-word,z,3,52,352,99,355.1989536000001,,,,,,,,,355.18414870000197,355.1989536000001,355.1989536000001,,356.18068720000156,m,0.9735175999994681,None,m,z,,,,06,001,2024-11-20_23h46.44.272,Lexical Decision Making,2024.1.5,None,2024-11-20 23h46.53.927116 +0530,
l o m e b,0.0,non-word,z,3,53,353,90,356.1963836000032,,,,,,,,,356.1812021000005,356.1963836000032,356.1963836000032,,357.1116295000029,z,0.9117946000005759,None,z,z,,,,06,001,2024-11-20_23h46.44.272,Lexical Decision Making,2024.1.5,None,2024-11-20 23h46.53.927116 +0530,
c a b l e,1.0,neutral,m,3,54,354,78,357.12742360000266,,,,,,,,,357.1121501000016,357.12742360000266,357.12742360000266,,357.89269290000084,m,0.7572682999998506,None,m,m,,,,06,001,2024-11-20_23h46.44.272,Lexical Decision Making,2024.1.5,None,2024-11-20 23h46.53.927116 +0530,
d r i n t,0.0,non-word,z,3,55,355,23,357.90842930000144,,,,,,,,,357.89321250000285,357.90842930000144,357.90842930000144,,358.87319639999987,z,0.9606030000031751,None,z,z,,,,06,001,2024-11-20_23h46.44.272,Lexical Decision Making,2024.1.5,None,2024-11-20 23h46.53.927116 +0530,
