stair.thisTrialN,stair.stepSize,stair.intensity,thisRow.t,notes,trial.started,fixation.started,grating.started,key_resp.started,fixation.stopped,grating.stopped,trial.stopped,corrAns,tilt,key-resp.corr,stair.response,key_resp.rt,participant,session,date,expName,psychopyVersion,frameRate,expStart,
0,2,10.0,0.0863025999860838,,0.05889270000625402,0.0863025999860838,0.5135293999919668,0.5135293999919668,0.5960886999964714,0.8275168999098241,1.1310144999297336,right,10.0,1,1,0.6036644999403507,514545,001,2024-09-06_11h33.56.311,adaptive_staircase,2024.1.5,None,2024-09-06 11h33.59.955667 +0530,
1,2,8.0,1.14317779999692,,1.1311123999767005,1.14317779999692,1.642713199951686,1.642713199951686,1.6595497999805957,1.9579713999992236,2.0591205999953672,right,8.0,1,1,0.4076629999326542,514545,001,2024-09-06_11h33.56.311,adaptive_staircase,2024.1.5,None,2024-09-06 11h33.59.955667 +0530,
2,2,6.0,2.074124199920334,,2.0592518999474123,2.074124199920334,2.572993899928406,2.572993899928406,2.590516799944453,2.8724306999938563,2.9229969999287277,right,6.0,1,1,0.34064119996037334,514545,001,2024-09-06_11h33.56.311,adaptive_staircase,2024.1.5,None,2024-09-06 11h33.59.955667 +0530,
3,2,4.0,2.9383544999873266,,2.9230883999262005,2.9383544999873266,3.437385299941525,3.437385299941525,3.437385299941525,3.7363917999900877,3.9701064999680966,left,-4.0,1,1,0.5278898000251502,514545,001,2024-09-06_11h33.56.311,adaptive_staircase,2024.1.5,None,2024-09-06 11h33.59.955667 +0530,
4,2,2.0,3.985413799993694,,3.9701898000203073,3.985413799993694,4.482994699967094,4.482994699967094,4.5010353999678046,4.784380199969746,5.00038969994057,right,2.0,1,1,0.5023735999129713,514545,001,2024-09-06_11h33.56.311,adaptive_staircase,2024.1.5,None,2024-09-06 11h33.59.955667 +0530,
5,1,1.0,5.0159271999727935,,5.000534899998456,5.0159271999727935,5.515319400001317,5.515319400001317,5.515319400001317,5.813962199958041,5.931448100018315,right,1.0,0,0,0.40326230006758124,514545,001,2024-09-06_11h33.56.311,adaptive_staircase,2024.1.5,None,2024-09-06 11h33.59.955667 +0530,
6,1,2.0,5.946450999937952,,5.93158490001224,5.946450999937952,6.44521509995684,6.44521509995684,6.44521509995684,6.74481940001715,6.912976499996148,left,-2.0,0,0,0.4645814000396058,514545,001,2024-09-06_11h33.56.311,adaptive_staircase,2024.1.5,None,2024-09-06 11h33.59.955667 +0530,
7,1,3.0,6.927417599945329,,6.913062099949457,6.927417599945329,7.426006200024858,7.426006200024858,7.426006200024858,7.725680299918167,8.009695400018245,left,-3.0,0,0,0.5724219999974594,514545,001,2024-09-06_11h33.56.311,adaptive_staircase,2024.1.5,None,2024-09-06 11h33.59.955667 +0530,
8,1,4.0,8.024349399958737,,8.00980909995269,8.024349399958737,8.523433099966496,8.523433099966496,8.54053009999916,8.83892739994917,9.005798399914056,right,4.0,1,1,0.47245130001101643,514545,001,2024-09-06_11h33.56.311,adaptive_staircase,2024.1.5,None,2024-09-06 11h33.59.955667 +0530,
9,1,4.0,9.02204279997386,,9.005895099951886,9.02204279997386,9.521186299971305,9.521186299971305,9.53767330001574,9.836355099920183,9.970040599931963,left,-4.0,1,1,0.44196259998716414,514545,001,2024-09-06_11h33.56.311,adaptive_staircase,2024.1.5,None,2024-09-06 11h33.59.955667 +0530,
10,1,4.0,9.986173499957658,,9.970147299929522,9.986173499957658,10.484277199953794,10.484277199953794,10.501508599962108,10.784046299988404,10.834717700025067,right,4.0,1,1,0.342219699989073,514545,001,2024-09-06_11h33.56.311,adaptive_staircase,2024.1.5,None,2024-09-06 11h33.59.955667 +0530,
11,0.5,3.0,10.849985899985768,,10.834852500003763,10.849985899985768,11.349130299990065,11.349130299990065,11.365971599938348,11.648132000002079,12.530399399925955,right,3.0,0,0,1.1703613999998197,514545,001,2024-09-06_11h33.56.311,adaptive_staircase,2024.1.5,None,2024-09-06 11h33.59.955667 +0530,
12,0.5,3.5,12.545793199911714,,12.53049239993561,12.545793199911714,13.044221799937077,13.044221799937077,13.061271699960344,13.343242599978112,13.926295800018124,right,3.5,1,1,0.872423299937509,514545,001,2024-09-06_11h33.56.311,adaptive_staircase,2024.1.5,None,2024-09-06 11h33.59.955667 +0530,
13,0.5,3.5,13.94129410001915,,13.926383499987423,13.94129410001915,14.44085469993297,14.44085469993297,14.456811800017022,14.756656499928795,16.369189099990763,right,3.5,0,0,1.927170000039041,514545,001,2024-09-06_11h33.56.311,adaptive_staircase,2024.1.5,None,2024-09-06 11h33.59.955667 +0530,
14,0.5,4.0,16.384945699945092,,16.369278899976052,16.384945699945092,16.883074300014414,16.883074300014414,16.900252499966882,17.182564400020055,18.180428199935704,right,4.0,0,0,1.2865750000346452,514545,001,2024-09-06_11h33.56.311,adaptive_staircase,2024.1.5,None,2024-09-06 11h33.59.955667 +0530,
15,0.5,4.5,18.19619909999892,,18.180514900013804,18.19619909999892,18.69502779992763,18.69502779992763,18.712216099957004,18.993914999999106,20.15864039992448,left,-4.5,0,0,1.447466399986297,514545,001,2024-09-06_11h33.56.311,adaptive_staircase,2024.1.5,None,2024-09-06 11h33.59.955667 +0530,
16,0.5,5.0,20.174503799993545,,20.15877829992678,20.174503799993545,20.672698399983346,20.672698399983346,20.68984309991356,20.971926799975336,21.73817979998421,right,5.0,0,0,1.062208899995312,514545,001,2024-09-06_11h33.56.311,adaptive_staircase,2024.1.5,None,2024-09-06 11h33.59.955667 +0530,
17,0.5,5.5,21.753371899947524,,21.738265799940564,21.753371899947524,22.25129719998222,22.25129719998222,22.268707099952735,22.550865299999714,23.681955299922265,left,-5.5,0,0,1.4176418000133708,514545,001,2024-09-06_11h33.56.311,adaptive_staircase,2024.1.5,None,2024-09-06 11h33.59.955667 +0530,
18,0.5,6.0,23.698128500021994,,23.682039199979044,23.698128500021994,24.19688699999824,24.19688699999824,24.21285120001994,24.51309509994462,25.128574099973775,right,6.0,0,0,0.9224554999964312,514545,001,2024-09-06_11h33.56.311,adaptive_staircase,2024.1.5,None,2024-09-06 11h33.59.955667 +0530,
19,0.5,6.5,25.145089600002393,,25.128658299916424,25.145089600002393,25.64319610001985,25.64319610001985,25.65939819999039,25.942028200021014,33.43888459994923,left,-6.5,0,0,7.786900200066157,514545,001,2024-09-06_11h33.56.311,adaptive_staircase,2024.1.5,None,2024-09-06 11h33.59.955667 +0530,
20,0.5,7.0,33.45484219992068,,33.43901889992412,33.45484219992068,33.95370549999643,33.95370549999643,33.96913099999074,34.25255939993076,35.582957300008275,left,-7.0,1,1,1.6162720000138506,514545,001,2024-09-06_11h33.56.311,adaptive_staircase,2024.1.5,None,2024-09-06 11h33.59.955667 +0530,
21,0.5,7.0,35.59868950000964,,35.58306390000507,35.59868950000964,36.0970903999405,36.0970903999405,36.11481930001173,36.39672580000479,36.630316099966876,right,7.0,1,1,0.5258246000157669,514545,001,2024-09-06_11h33.56.311,adaptive_staircase,2024.1.5,None,2024-09-06 11h33.59.955667 +0530,
22,0.5,7.0,36.64577719999943,,36.63042800000403,36.64577719999943,37.14453869999852,37.14453869999852,37.14453869999852,37.44541109993588,37.795678499969654,right,7.0,1,1,0.6360263000242412,514545,001,2024-09-06_11h33.56.311,adaptive_staircase,2024.1.5,None,2024-09-06 11h33.59.955667 +0530,
23,0.5,6.5,37.8109743000241,,37.7957709999755,37.8109743000241,38.308458199957386,38.308458199957386,38.32513429992832,38.607405800023116,38.79150389996357,right,6.5,1,1,0.4737713999347761,514545,001,2024-09-06_11h33.56.311,adaptive_staircase,2024.1.5,None,2024-09-06 11h33.59.955667 +0530,
24,0.5,6.5,38.806858900003135,,38.791609499952756,38.806858900003135,39.305238600005396,39.305238600005396,39.32143449992873,39.60463469999377,39.87179909995757,left,-6.5,1,1,0.5518465999048203,514545,001,2024-09-06_11h33.56.311,adaptive_staircase,2024.1.5,None,2024-09-06 11h33.59.955667 +0530,
25,0.5,6.5,39.88684449996799,,39.87188320001587,39.88684449996799,40.385316199972294,40.385316199972294,40.385316199972294,40.68500029994175,41.18622699996922,left,-6.5,1,1,0.7930623000720516,514545,001,2024-09-06_11h33.56.311,adaptive_staircase,2024.1.5,None,2024-09-06 11h33.59.955667 +0530,
26,0.5,6.0,41.20041469996795,,41.18633179995231,41.20041469996795,41.699145299964584,41.699145299964584,41.71618959994521,41.998010399984196,42.979360900004394,left,-6.0,1,1,1.2680581999011338,514545,001,2024-09-06_11h33.56.311,adaptive_staircase,2024.1.5,None,2024-09-06 11h33.59.955667 +0530,
27,0.5,6.0,42.994933699956164,,42.979443199932575,42.994933699956164,43.49385119997896,43.49385119997896,43.51020419993438,43.793692099978216,47.08510009991005,left,-6.0,0,0,3.583418900030665,514545,001,2024-09-06_11h33.56.311,adaptive_staircase,2024.1.5,None,2024-09-06 11h33.59.955667 +0530,
28,0.5,6.5,47.10037509992253,,47.08525120001286,47.10037509992253,47.598890400025994,47.598890400025994,47.615513899945654,47.89872459997423,48.76364000001922,left,-6.5,1,1,1.1592711999546736,514545,001,2024-09-06_11h33.56.311,adaptive_staircase,2024.1.5,None,2024-09-06 11h33.59.955667 +0530,
29,0.5,6.5,48.779263100004755,,48.76374089997262,48.779263100004755,49.278655499918386,49.278655499918386,49.29531810001936,49.59447020001244,49.99317319993861,right,6.5,1,1,0.7093547000549734,514545,001,2024-09-06_11h33.56.311,adaptive_staircase,2024.1.5,None,2024-09-06 11h33.59.955667 +0530,
30,0.5,6.5,50.00975610001478,,49.99325349996798,50.00975610001478,50.5076922000153,50.5076922000153,50.524971499922685,50.807519100024365,51.22352639993187,left,-6.5,1,1,0.7110622000182047,514545,001,2024-09-06_11h33.56.311,adaptive_staircase,2024.1.5,None,2024-09-06 11h33.59.955667 +0530,
31,0.5,6.0,51.23941359994933,,51.22361260000616,51.23941359994933,51.73725150001701,51.73725150001701,51.75498759991024,52.03705299994908,52.32093589997385,left,-6.0,1,1,0.5817027000011876,514545,001,2024-09-06_11h33.56.311,adaptive_staircase,2024.1.5,None,2024-09-06 11h33.59.955667 +0530,
32,0.5,6.0,52.336141599924304,,52.32104289997369,52.336141599924304,52.83547709998675,52.83547709998675,52.851703799911775,53.150815399945714,53.80051079997793,left,-6.0,1,1,0.9619619000004604,514545,001,2024-09-06_11h33.56.311,adaptive_staircase,2024.1.5,None,2024-09-06 11h33.59.955667 +0530,
33,0.5,6.0,53.81513719994109,,53.80059709993657,53.81513719994109,54.31440799997654,54.31440799997654,54.31440799997654,54.61361150001176,55.87743569992017,left,-6.0,1,1,1.554536100011319,514545,001,2024-09-06_11h33.56.311,adaptive_staircase,2024.1.5,None,2024-09-06 11h33.59.955667 +0530,
34,0.5,5.5,55.89295220002532,,55.87752009998076,55.89295220002532,56.391750299953856,56.391750299953856,56.40803950000554,56.691277600009926,57.35627679992467,right,5.5,0,0,0.9488536999560893,514545,001,2024-09-06_11h33.56.311,adaptive_staircase,2024.1.5,None,2024-09-06 11h33.59.955667 +0530,
35,0.5,6.0,57.372136599966325,,57.35640499996953,57.372136599966325,57.87096450000536,57.87096450000536,57.87096450000536,58.16983279993292,58.53696980001405,left,-6.0,1,1,0.6644631000235677,514545,001,2024-09-06_11h33.56.311,adaptive_staircase,2024.1.5,None,2024-09-06 11h33.59.955667 +0530,
36,0.5,6.0,58.55234880000353,,58.53705299994908,58.55234880000353,59.051620699930936,59.051620699930936,59.051620699930936,59.35065099992789,59.79943569994066,left,-6.0,1,1,0.7388838999904692,514545,001,2024-09-06_11h33.56.311,adaptive_staircase,2024.1.5,None,2024-09-06 11h33.59.955667 +0530,
37,0.5,6.0,59.815305699943565,,59.79951679997612,59.815305699943565,60.31476039998233,60.31476039998233,60.33131499995943,60.630632799933665,60.880180199979804,right,6.0,1,1,0.5622274000197649,514545,001,2024-09-06_11h33.56.311,adaptive_staircase,2024.1.5,None,2024-09-06 11h33.59.955667 +0530,
38,0.5,5.5,60.895960699999705,,60.880264599923976,60.895960699999705,61.39498109999113,61.39498109999113,61.411174900014885,61.711066799936816,61.8776389999548,left,-5.5,1,1,0.4769514000508934,514545,001,2024-09-06_11h33.56.311,adaptive_staircase,2024.1.5,None,2024-09-06 11h33.59.955667 +0530,
39,0.5,5.5,61.89306089992169,,61.87772170000244,61.89306089992169,62.39271889999509,62.39271889999509,62.40879449993372,62.7073306000093,62.92518089991063,left,-5.5,1,1,0.5206026000669226,514545,001,2024-09-06_11h33.56.311,adaptive_staircase,2024.1.5,None,2024-09-06 11h33.59.955667 +0530,
40,0.5,5.5,62.940726100001484,,62.92531369999051,62.940726100001484,63.4394794999389,63.4394794999389,63.45611439994536,63.73790970002301,63.82254179997835,right,5.5,0,0,0.3681213000090793,514545,001,2024-09-06_11h33.56.311,adaptive_staircase,2024.1.5,None,2024-09-06 11h33.59.955667 +0530,
41,0.5,6.0,63.83859960001428,,63.82263049995527,63.83859960001428,64.33755369996652,64.33755369996652,64.35338939994108,64.65273729991168,64.70311689993832,left,-6.0,0,0,0.36412669997662306,514545,001,2024-09-06_11h33.56.311,adaptive_staircase,2024.1.5,None,2024-09-06 11h33.59.955667 +0530,
42,0.5,6.5,64.71919969993178,,64.70320609991904,64.71919969993178,65.21797859994695,65.21797859994695,65.23403049993794,65.51653499994427,65.56814400001895,left,-6.5,0,0,0.3374593999469653,514545,001,2024-09-06_11h33.56.311,adaptive_staircase,2024.1.5,None,2024-09-06 11h33.59.955667 +0530,
43,0.5,7.0,65.58338919992093,,65.56823069998063,65.58338919992093,66.08200669998769,66.08200669998769,66.09873809991404,66.3974903000053,66.39858719997574,left,-7.0,0,0,0.3024646999547258,514545,001,2024-09-06_11h33.56.311,adaptive_staircase,2024.1.5,None,2024-09-06 11h33.59.955667 +0530,
44,0.5,7.5,66.41432089998852,,66.39867179992143,66.41432089998852,66.91272339993156,66.91272339993156,66.92969469993841,67.22913779993542,67.27952829992864,left,-7.5,0,0,0.36091060005128384,514545,001,2024-09-06_11h33.56.311,adaptive_staircase,2024.1.5,None,2024-09-06 11h33.59.955667 +0530,
45,0.5,8.0,67.29545889992733,,67.27961359999608,67.29545889992733,67.79353109991644,67.79353109991644,67.81078319996595,68.09310169995297,68.11071119992994,left,-8.0,0,0,0.31087739998474717,514545,001,2024-09-06_11h33.56.311,adaptive_staircase,2024.1.5,None,2024-09-06 11h33.59.955667 +0530,
46,0.5,8.5,68.12633489992004,,68.11081799992826,68.12633489992004,68.62503899994772,68.62503899994772,68.6420272999676,,68.74234699993394,left,-8.5,1,1,0.10156159999314696,514545,001,2024-09-06_11h33.56.311,adaptive_staircase,2024.1.5,None,2024-09-06 11h33.59.955667 +0530,
47,0.5,8.5,68.75861729995813,,68.74245519994292,68.75861729995813,69.25702409993391,69.25702409993391,69.27380369999446,,69.54027449991554,right,8.5,0,0,0.26810180000029504,514545,001,2024-09-06_11h33.56.311,adaptive_staircase,2024.1.5,None,2024-09-06 11h33.59.955667 +0530,
48,0.5,9.0,69.55545539990999,,69.54038389993366,69.55545539990999,70.05465659999754,70.05465659999754,70.05465659999754,,70.33777199999895,right,9.0,0,0,0.28146169998217374,514545,001,2024-09-06_11h33.56.311,adaptive_staircase,2024.1.5,None,2024-09-06 11h33.59.955667 +0530,
49,0.5,9.5,70.35445440001786,,70.33790869999211,70.35445440001786,70.85170379991177,70.85170379991177,70.8682810999453,71.1512006999692,71.15216549998149,left,-9.5,0,0,0.28665340004954487,514545,001,2024-09-06_11h33.56.311,adaptive_staircase,2024.1.5,None,2024-09-06 11h33.59.955667 +0530,
