Stimulus,IsWord,Valence,CorrectResponse,trials.thisRepN,trials.thisTrialN,trials.thisN,trials.thisIndex,thisRow.t,notes,instructions.started,instructionsText.started,key_resp_2.started,instructions.stopped,key_resp_2.keys,key_resp_2.rt,key_resp_2.duration,trial.started,text.started,key_resp.started,text.stopped,trial.stopped,key_resp.keys,key_resp.rt,key_resp.duration,ParticipantResponse,CorrectResponse,End.started,text_z.started,End.stopped,participant,session,date,expName,psychopyVersion,frameRate,expStart,
,,,,,,,,,,0.02068449999933364,0.036191899998812005,0.036191899998812005,7.936046700000588,space,7.885982899999362,None,,,,,,,,,,,,,,005,001,2024-11-20_23h38.38.797,Lexical Decision Making,2024.1.5,None,2024-11-20 23h38.54.671575 +0530,
e x c i t e d,1.0,positive,m,0,0,0,72,7.9653603000006115,,,,,,,,,7.957268900001509,7.9653603000006115,7.9653603000006115,8.979778600001737,10.676272400000016,m,2.7012214999995194,None,m,m,,,,005,001,2024-11-20_23h38.38.797,Lexical Decision Making,2024.1.5,None,2024-11-20 23h38.54.671575 +0530,
g r i n d l e,0.0,non-word,z,0,1,1,54,10.691552500000398,,,,,,,,,10.677785300002142,10.691552500000398,10.691552500000398,11.705249900001945,13.119244600002276,z,2.414872800000012,None,z,z,,,,005,001,2024-11-20_23h38.38.797,Lexical Decision Making,2024.1.5,None,2024-11-20 23h38.54.671575 +0530,
s a d n e s s,1.0,negative,m,0,2,2,65,13.134942100001354,,,,,,,,,13.119782800000394,13.134942100001354,13.134942100001354,14.148706100000709,14.233400199998869,m,1.0946981000015512,None,m,m,,,,005,001,2024-11-20_23h38.38.797,Lexical Decision Making,2024.1.5,None,2024-11-20 23h38.54.671575 +0530,
p l a r k,0.0,non-word,z,0,3,3,45,14.248967999999877,,,,,,,,,14.23393120000037,14.248967999999877,14.248967999999877,15.262876299999334,15.479711100000713,z,1.221762299999682,None,z,z,,,,005,001,2024-11-20_23h38.38.797,Lexical Decision Making,2024.1.5,None,2024-11-20 23h38.54.671575 +0530,
w i n d o w,1.0,neutral,m,0,4,4,68,15.495026900000084,,,,,,,,,15.480269300001964,15.495026900000084,15.495026900000084,16.508846700002323,16.692728400001215,m,1.1869374999987485,None,m,m,,,,005,001,2024-11-20_23h38.38.797,Lexical Decision Making,2024.1.5,None,2024-11-20 23h38.54.671575 +0530,
w i n d o w,1.0,neutral,m,0,5,5,80,16.708432399998856,,,,,,,,,16.6933194000012,16.708432399998856,16.708432399998856,17.722637300001225,20.333228499999677,m,3.623822099998506,None,m,m,,,,005,001,2024-11-20_23h38.38.797,Lexical Decision Making,2024.1.5,None,2024-11-20 23h38.54.671575 +0530,
l a m p,1.0,neutral,m,0,6,6,18,20.348397300000215,,,,,,,,,20.333769299999403,20.348397300000215,20.348397300000215,21.36251809999885,22.07810750000135,m,1.7173284000018612,None,m,m,,,,005,001,2024-11-20_23h38.38.797,Lexical Decision Making,2024.1.5,None,2024-11-20 23h38.54.671575 +0530,
l o m e b,0.0,non-word,z,0,7,7,90,22.093751500000508,,,,,,,,,22.078655199999048,22.093751500000508,22.093751500000508,23.10806919999959,23.291366199999175,z,1.1815979999992123,None,z,z,,,,005,001,2024-11-20_23h38.38.797,Lexical Decision Making,2024.1.5,None,2024-11-20 23h38.54.671575 +0530,
b o t t l e,1.0,neutral,m,0,8,8,58,23.3070899000013,,,,,,,,,23.291900299998815,23.3070899000013,23.3070899000013,24.321666800002276,24.488553999999567,m,1.1757183000008808,None,m,m,,,,005,001,2024-11-20_23h38.38.797,Lexical Decision Making,2024.1.5,None,2024-11-20 23h38.54.671575 +0530,
d r o n t,0.0,non-word,z,0,9,9,95,24.50372640000205,,,,,,,,,24.489181600001757,24.50372640000205,24.50372640000205,25.518093800001225,25.768160499999794,z,1.251201499999297,None,z,z,,,,005,001,2024-11-20_23h38.38.797,Lexical Decision Making,2024.1.5,None,2024-11-20 23h38.54.671575 +0530,
t r e n k,0.0,non-word,z,0,10,10,57,25.78356210000129,,,,,,,,,25.76870169999893,25.78356210000129,25.78356210000129,,26.582410700000764,z,0.7942798000003677,None,z,z,,,,005,001,2024-11-20_23h38.38.797,Lexical Decision Making,2024.1.5,None,2024-11-20 23h38.54.671575 +0530,
s o r r o w,1.0,negative,m,0,11,11,33,26.598030600001948,,,,,,,,,26.582942100001674,26.598030600001948,26.598030600001948,,27.347051400000055,m,0.7367811999974947,None,m,m,,,,005,001,2024-11-20_23h38.38.797,Lexical Decision Making,2024.1.5,None,2024-11-20 23h38.54.671575 +0530,
s t o n e,1.0,neutral,m,0,12,12,13,27.362607099999877,,,,,,,,,27.347584499999357,27.362607099999877,27.362607099999877,,28.062026999999944,m,0.6957280999995419,None,m,m,,,,005,001,2024-11-20_23h38.38.797,Lexical Decision Making,2024.1.5,None,2024-11-20 23h38.54.671575 +0530,
b l o r p,0.0,non-word,z,0,13,13,84,28.07754019999993,,,,,,,,,28.062562700000854,28.07754019999993,28.07754019999993,29.091606000001775,29.109515299998748,z,1.0306047000012768,None,z,z,,,,005,001,2024-11-20_23h38.38.797,Lexical Decision Making,2024.1.5,None,2024-11-20 23h38.54.671575 +0530,
d r i n t,0.0,non-word,z,0,14,14,23,29.12497450000228,,,,,,,,,29.11006030000135,29.12497450000228,29.12497450000228,,29.956517900001927,z,0.817074099999445,None,z,z,,,,005,001,2024-11-20_23h38.38.797,Lexical Decision Making,2024.1.5,None,2024-11-20 23h38.54.671575 +0530,
h o p e,1.0,positive,m,0,15,15,46,29.972588200002065,,,,,,,,,29.957070600001316,29.972588200002065,29.972588200002065,,30.638193099999626,m,0.6619484999973793,None,m,m,,,,005,001,2024-11-20_23h38.38.797,Lexical Decision Making,2024.1.5,None,2024-11-20 23h38.54.671575 +0530,
s a d,1.0,negative,m,0,16,16,87,30.653567100001965,,,,,,,,,30.638950900000054,30.653567100001965,30.653567100001965,,31.303261199998815,m,0.6378858999996737,None,m,m,,,,005,001,2024-11-20_23h38.38.797,Lexical Decision Making,2024.1.5,None,2024-11-20 23h38.54.671575 +0530,
s m i l e,1.0,positive,m,0,17,17,92,31.318399600000703,,,,,,,,,31.30379660000108,31.318399600000703,31.318399600000703,,31.91805690000183,m,0.586482500002603,None,m,m,,,,005,001,2024-11-20_23h38.38.797,Lexical Decision Making,2024.1.5,None,2024-11-20 23h38.54.671575 +0530,
a p p l e,1.0,neutral,m,0,18,18,32,31.933651200000895,,,,,,,,,31.91861219999919,31.933651200000895,31.933651200000895,,32.582897799999046,m,0.6337594999968132,None,m,m,,,,005,001,2024-11-20_23h38.38.797,Lexical Decision Making,2024.1.5,None,2024-11-20 23h38.54.671575 +0530,
b o o k,1.0,neutral,m,0,19,19,22,32.59827000000223,,,,,,,,,32.58343800000148,32.59827000000223,32.59827000000223,,33.197937199998705,m,0.5906055000014021,None,m,m,,,,005,001,2024-11-20_23h38.38.797,Lexical Decision Making,2024.1.5,None,2024-11-20 23h38.54.671575 +0530,
s u c c e s s,1.0,positive,m,0,20,20,35,33.21332130000155,,,,,,,,,33.19850370000131,33.21332130000155,33.21332130000155,,33.78000420000171,m,0.5566417000009096,None,m,m,,,,005,001,2024-11-20_23h38.38.797,Lexical Decision Making,2024.1.5,None,2024-11-20 23h38.54.671575 +0530,
c h i n d l e,0.0,non-word,z,0,21,21,8,33.795184400001745,,,,,,,,,33.78053910000017,33.795184400001745,33.795184400001745,,34.361923399999796,m,0.5562626999999338,None,m,z,,,,005,001,2024-11-20_23h38.38.797,Lexical Decision Making,2024.1.5,None,2024-11-20 23h38.54.671575 +0530,
p e a c e,1.0,positive,m,0,22,22,97,34.37675490000038,,,,,,,,,34.36258920000182,34.37675490000038,34.37675490000038,35.37430210000093,36.489013300000806,m,2.108647999997629,None,m,m,,,,005,001,2024-11-20_23h38.38.797,Lexical Decision Making,2024.1.5,None,2024-11-20 23h38.54.671575 +0530,
r e g r e t,1.0,negative,m,0,23,23,64,36.504375500000606,,,,,,,,,36.48958920000223,36.504375500000606,36.504375500000606,37.51813580000089,37.91837469999882,m,1.402194900001632,None,m,m,,,,005,001,2024-11-20_23h38.38.797,Lexical Decision Making,2024.1.5,None,2024-11-20 23h38.54.671575 +0530,
m i s e r y,1.0,negative,m,0,24,24,34,37.93370440000217,,,,,,,,,37.91892260000168,37.93370440000217,37.93370440000217,,38.66615269999966,m,0.7203317000021343,None,m,m,,,,005,001,2024-11-20_23h38.38.797,Lexical Decision Making,2024.1.5,None,2024-11-20 23h38.54.671575 +0530,
g r a t i t u d e,1.0,positive,m,0,25,25,41,38.68185540000195,,,,,,,,,38.66671159999896,38.68185540000195,38.68185540000195,,39.28190090000135,m,0.5877025000008871,None,m,m,,,,005,001,2024-11-20_23h38.38.797,Lexical Decision Making,2024.1.5,None,2024-11-20 23h38.54.671575 +0530,
a n g e r,1.0,negative,m,0,26,26,44,39.2966817000015,,,,,,,,,39.282430600000225,39.2966817000015,39.2966817000015,,39.99583580000035,m,0.6838791000009223,None,m,m,,,,005,001,2024-11-20_23h38.38.797,Lexical Decision Making,2024.1.5,None,2024-11-20 23h38.54.671575 +0530,
c h a i r,1.0,neutral,m,0,27,27,7,40.01138809999975,,,,,,,,,39.99638880000202,40.01138809999975,40.01138809999975,,40.677496899999824,m,0.650758700001461,None,m,m,,,,005,001,2024-11-20_23h38.38.797,Lexical Decision Making,2024.1.5,None,2024-11-20 23h38.54.671575 +0530,
t r a i n,1.0,neutral,m,0,28,28,40,40.69276330000139,,,,,,,,,40.678051400002005,40.69276330000139,40.69276330000139,,41.24354370000219,m,0.5367908999978681,None,m,m,,,,005,001,2024-11-20_23h38.38.797,Lexical Decision Making,2024.1.5,None,2024-11-20 23h38.54.671575 +0530,
p l o r,0.0,non-word,z,0,29,29,52,41.25814530000207,,,,,,,,,41.2442770000016,41.25814530000207,41.25814530000207,,42.12326469999971,z,0.8541589999986172,None,z,z,,,,005,001,2024-11-20_23h38.38.797,Lexical Decision Making,2024.1.5,None,2024-11-20 23h38.54.671575 +0530,
h a t e,1.0,negative,m,0,30,30,74,42.13883270000224,,,,,,,,,42.123887199999444,42.13883270000224,42.13883270000224,43.15271819999907,44.81594590000168,m,2.6645707999996375,None,m,m,,,,005,001,2024-11-20_23h38.38.797,Lexical Decision Making,2024.1.5,None,2024-11-20 23h38.54.671575 +0530,
j o y f u l,1.0,positive,m,0,31,31,19,44.83175610000035,,,,,,,,,44.8165012999998,44.83175610000035,44.83175610000035,,45.464114999998856,m,0.6281178000026557,None,m,m,,,,005,001,2024-11-20_23h38.38.797,Lexical Decision Making,2024.1.5,None,2024-11-20 23h38.54.671575 +0530,
p e n c i l,1.0,neutral,m,0,32,32,24,45.47991259999981,,,,,,,,,45.46466639999926,45.47991259999981,45.47991259999981,,46.1790828000012,m,0.6866193000023486,None,m,m,,,,005,001,2024-11-20_23h38.38.797,Lexical Decision Making,2024.1.5,None,2024-11-20 23h38.54.671575 +0530,
s m o r n,0.0,non-word,z,0,33,33,14,46.194434199998796,,,,,,,,,46.179624200001854,46.194434199998796,46.194434199998796,,47.15965100000176,z,0.9478804999998829,None,z,z,,,,005,001,2024-11-20_23h38.38.797,Lexical Decision Making,2024.1.5,None,2024-11-20 23h38.54.671575 +0530,
t w o r i k,0.0,non-word,z,0,34,34,93,47.17522390000158,,,,,,,,,47.1601840000003,47.17522390000158,47.17522390000158,48.18915449999986,48.27376860000004,z,1.096904199999699,None,z,z,,,,005,001,2024-11-20_23h38.38.797,Lexical Decision Making,2024.1.5,None,2024-11-20 23h38.54.671575 +0530,
s m a g l e,0.0,non-word,z,0,35,35,53,48.288945299998886,,,,,,,,,48.27445400000215,48.288945299998886,48.288945299998886,,49.004648400001315,z,0.7039489999988291,None,z,z,,,,005,001,2024-11-20_23h38.38.797,Lexical Decision Making,2024.1.5,None,2024-11-20 23h38.54.671575 +0530,
v a b l i n,0.0,non-word,z,0,36,36,1,49.02023940000072,,,,,,,,,49.00518799999918,49.02023940000072,49.02023940000072,,49.68622619999951,z,0.6614388000016334,None,z,z,,,,005,001,2024-11-20_23h38.38.797,Lexical Decision Making,2024.1.5,None,2024-11-20 23h38.54.671575 +0530,
c h e e r f u l,1.0,positive,m,0,37,37,43,49.70173599999907,,,,,,,,,49.68677559999924,49.70173599999907,49.70173599999907,,50.45056200000181,m,0.7443236999970395,None,m,m,,,,005,001,2024-11-20_23h38.38.797,Lexical Decision Making,2024.1.5,None,2024-11-20 23h38.54.671575 +0530,
p e a c e,1.0,positive,m,0,38,38,89,50.46631849999903,,,,,,,,,50.451105299998744,50.46631849999903,50.46631849999903,,51.34819200000129,m,0.8742235000026994,None,m,m,,,,005,001,2024-11-20_23h38.38.797,Lexical Decision Making,2024.1.5,None,2024-11-20 23h38.54.671575 +0530,
s u n s h i n e,1.0,positive,m,0,39,39,30,51.36405530000047,,,,,,,,,51.348742900001525,51.36405530000047,51.36405530000047,,51.930359699999826,m,0.5649204000001191,None,m,m,,,,005,001,2024-11-20_23h38.38.797,Lexical Decision Making,2024.1.5,None,2024-11-20 23h38.54.671575 +0530,
c a r p e t,1.0,neutral,m,0,40,40,85,51.94583739999871,,,,,,,,,51.93088809999972,51.94583739999871,51.94583739999871,,52.661390199999005,m,0.7010289999998349,None,m,m,,,,005,001,2024-11-20_23h38.38.797,Lexical Decision Making,2024.1.5,None,2024-11-20 23h38.54.671575 +0530,
m u r k l e,0.0,non-word,z,0,41,41,66,52.67680889999974,,,,,,,,,52.66192930000034,52.67680889999974,52.67680889999974,53.69058270000096,53.69203860000198,z,1.008927599999879,None,z,z,,,,005,001,2024-11-20_23h38.38.797,Lexical Decision Making,2024.1.5,None,2024-11-20 23h38.54.671575 +0530,
g r i n d l e,0.0,non-word,z,0,42,42,17,53.70737000000008,,,,,,,,,53.69256519999908,53.70737000000008,53.70737000000008,54.721090600000025,55.453400900001725,m,1.7342454999998154,None,m,z,,,,005,001,2024-11-20_23h38.38.797,Lexical Decision Making,2024.1.5,None,2024-11-20 23h38.54.671575 +0530,
g r i e f,1.0,negative,m,0,43,43,62,55.4693683000005,,,,,,,,,55.4539431000012,55.4693683000005,55.4693683000005,,56.30196620000061,m,0.8308639000024414,None,m,m,,,,005,001,2024-11-20_23h38.38.797,Lexical Decision Making,2024.1.5,None,2024-11-20 23h38.54.671575 +0530,
t a b l e,1.0,neutral,m,0,44,44,6,56.31704969999919,,,,,,,,,56.3024989000005,56.31704969999919,56.31704969999919,,57.165379199999734,m,0.837906100001419,None,m,m,,,,005,001,2024-11-20_23h38.38.797,Lexical Decision Making,2024.1.5,None,2024-11-20 23h38.54.671575 +0530,
m o u n t a i n,1.0,neutral,m,0,45,45,71,57.18110979999983,,,,,,,,,57.16594520000217,57.18110979999983,57.18110979999983,,57.797126800000115,m,0.6089221999973233,None,m,m,,,,005,001,2024-11-20_23h38.38.797,Lexical Decision Making,2024.1.5,None,2024-11-20 23h38.54.671575 +0530,
q u i b l e n,0.0,non-word,z,0,46,46,91,57.81305269999939,,,,,,,,,57.79766000000018,57.81305269999939,57.81305269999939,,58.72818819999884,z,0.912122099998669,None,z,z,,,,005,001,2024-11-20_23h38.38.797,Lexical Decision Making,2024.1.5,None,2024-11-20 23h38.54.671575 +0530,
d r e a m,1.0,positive,m,0,47,47,9,58.74385710000206,,,,,,,,,58.72872220000136,58.74385710000206,58.74385710000206,59.7573865000013,59.75846850000016,m,1.0021107000029588,None,m,m,,,,005,001,2024-11-20_23h38.38.797,Lexical Decision Making,2024.1.5,None,2024-11-20 23h38.54.671575 +0530,
c a l e n d a r,1.0,neutral,m,0,48,48,86,59.77423629999976,,,,,,,,,59.75902770000175,59.77423629999976,59.77423629999976,,60.456421099999716,m,0.6778733999999531,None,m,m,,,,005,001,2024-11-20_23h38.38.797,Lexical Decision Making,2024.1.5,None,2024-11-20 23h38.54.671575 +0530,
b r a s k,0.0,non-word,z,0,49,49,79,60.472030000000814,,,,,,,,,60.45695010000054,60.472030000000814,60.472030000000814,,61.27090429999953,z,0.7923081000008096,None,z,z,,,,005,001,2024-11-20_23h38.38.797,Lexical Decision Making,2024.1.5,None,2024-11-20 23h38.54.671575 +0530,
l o s s,1.0,negative,m,0,50,50,29,61.286524300001474,,,,,,,,,61.271434999998746,61.286524300001474,61.286524300001474,,62.23503460000211,m,0.9394342999985383,None,m,m,,,,005,001,2024-11-20_23h38.38.797,Lexical Decision Making,2024.1.5,None,2024-11-20 23h38.54.671575 +0530,
s m o r n,0.0,non-word,z,0,51,51,51,62.250599499999225,,,,,,,,,62.235573800000566,62.250599499999225,62.250599499999225,,63.01623920000202,z,0.7532492999998794,None,z,z,,,,005,001,2024-11-20_23h38.38.797,Lexical Decision Making,2024.1.5,None,2024-11-20 23h38.54.671575 +0530,
w a r,1.0,negative,m,0,52,52,67,63.032006000001275,,,,,,,,,63.01677720000225,63.032006000001275,63.032006000001275,,63.847268800000165,m,0.8073193999989599,None,m,m,,,,005,001,2024-11-20_23h38.38.797,Lexical Decision Making,2024.1.5,None,2024-11-20 23h38.54.671575 +0530,
c l o c k,1.0,neutral,m,0,53,53,48,63.86311420000129,,,,,,,,,63.84780379999938,63.86311420000129,63.86311420000129,,64.56194329999926,m,0.686641200001759,None,m,m,,,,005,001,2024-11-20_23h38.38.797,Lexical Decision Making,2024.1.5,None,2024-11-20 23h38.54.671575 +0530,
p e n c i l,1.0,neutral,m,0,54,54,37,64.57771420000063,,,,,,,,,64.56248160000177,64.57771420000063,64.57771420000063,,65.16017980000106,m,0.569658200001868,None,m,m,,,,005,001,2024-11-20_23h38.38.797,Lexical Decision Making,2024.1.5,None,2024-11-20 23h38.54.671575 +0530,
g r u f f i l,0.0,non-word,z,0,55,55,49,65.17580390000148,,,,,,,,,65.16071300000112,65.17580390000148,65.17580390000148,,65.90811839999878,z,0.7165290000011737,None,z,z,,,,005,001,2024-11-20_23h38.38.797,Lexical Decision Making,2024.1.5,None,2024-11-20 23h38.54.671575 +0530,
c r i o u s,0.0,non-word,z,0,56,56,99,65.92406860000119,,,,,,,,,65.90867119999893,65.92406860000119,65.92406860000119,66.93791989999954,67.20467790000112,m,1.266106500002934,None,m,z,,,,005,001,2024-11-20_23h38.38.797,Lexical Decision Making,2024.1.5,None,2024-11-20 23h38.54.671575 +0530,
g r i e f,1.0,negative,m,0,57,57,50,67.22059970000191,,,,,,,,,67.20525550000093,67.22059970000191,67.22059970000191,68.23425839999982,68.26835910000227,m,1.0379816999993636,None,m,m,,,,005,001,2024-11-20_23h38.38.797,Lexical Decision Making,2024.1.5,None,2024-11-20 23h38.54.671575 +0530,
h a p p y,1.0,positive,m,0,58,58,21,68.28485,,,,,,,,,68.26890429999912,68.28485,68.28485,,68.86691140000039,m,0.5735626999994565,None,m,m,,,,005,001,2024-11-20_23h38.38.797,Lexical Decision Making,2024.1.5,None,2024-11-20 23h38.54.671575 +0530,
z o m p r e,0.0,non-word,z,0,59,59,73,68.88263970000116,,,,,,,,,68.86744950000138,68.88263970000116,68.88263970000116,,69.56505250000191,z,0.6720244999996794,None,z,z,,,,005,001,2024-11-20_23h38.38.797,Lexical Decision Making,2024.1.5,None,2024-11-20 23h38.54.671575 +0530,
l o v e,1.0,positive,m,0,60,60,0,69.58066830000098,,,,,,,,,69.56560209999952,69.58066830000098,69.58066830000098,,70.29629009999917,m,0.7060914000030607,None,m,m,,,,005,001,2024-11-20_23h38.38.797,Lexical Decision Making,2024.1.5,None,2024-11-20 23h38.54.671575 +0530,
d e s p a i r,1.0,negative,m,0,61,61,56,70.31211059999987,,,,,,,,,70.29681690000143,70.31211059999987,70.31211059999987,,70.99444070000027,m,0.6658076000021538,None,m,m,,,,005,001,2024-11-20_23h38.38.797,Lexical Decision Making,2024.1.5,None,2024-11-20 23h38.54.671575 +0530,
v i c t o r y,1.0,positive,m,0,62,62,25,71.0099967999995,,,,,,,,,70.9951667000023,71.0099967999995,71.0099967999995,,71.57629040000029,m,0.5521560999986832,None,m,m,,,,005,001,2024-11-20_23h38.38.797,Lexical Decision Making,2024.1.5,None,2024-11-20 23h38.54.671575 +0530,
c e l e b r a t i o n,1.0,positive,m,0,63,63,75,71.59178990000146,,,,,,,,,71.5768406999996,71.59178990000146,71.59178990000146,,72.24118570000064,m,0.634876299998723,None,m,m,,,,005,001,2024-11-20_23h38.38.797,Lexical Decision Making,2024.1.5,None,2024-11-20 23h38.54.671575 +0530,
l a w v e r,0.0,non-word,z,0,64,64,76,72.25667330000215,,,,,,,,,72.24172019999969,72.25667330000215,72.25667330000215,,72.98942050000187,z,0.7282369999993534,None,z,z,,,,005,001,2024-11-20_23h38.38.797,Lexical Decision Making,2024.1.5,None,2024-11-20 23h38.54.671575 +0530,
b l o r p,0.0,non-word,z,0,65,65,60,73.00481769999897,,,,,,,,,72.98995239999931,73.00481769999897,73.00481769999897,74.01836380000168,74.31869150000057,z,1.3043072000000393,None,z,z,,,,005,001,2024-11-20_23h38.38.797,Lexical Decision Making,2024.1.5,None,2024-11-20 23h38.54.671575 +0530,
p l a n e t,1.0,neutral,m,0,66,66,47,74.33432370000082,,,,,,,,,74.3192369999997,74.33432370000082,74.33432370000082,75.34825420000197,75.83117670000138,m,1.4872202000005927,None,m,m,,,,005,001,2024-11-20_23h38.38.797,Lexical Decision Making,2024.1.5,None,2024-11-20 23h38.54.671575 +0530,
f l o r t,0.0,non-word,z,0,67,67,11,75.84738769999967,,,,,,,,,75.83171650000077,75.84738769999967,75.84738769999967,,76.76222440000129,z,0.9126685999981419,None,z,z,,,,005,001,2024-11-20_23h38.38.797,Lexical Decision Making,2024.1.5,None,2024-11-20 23h38.54.671575 +0530,
g l o r b y,0.0,non-word,z,0,68,68,28,76.77778500000204,,,,,,,,,76.76284289999967,76.77778500000204,76.77778500000204,77.79145150000113,77.94222060000175,z,1.1576279000000795,None,z,z,,,,005,001,2024-11-20_23h38.38.797,Lexical Decision Making,2024.1.5,None,2024-11-20 23h38.54.671575 +0530,
b l o r p,0.0,non-word,z,0,69,69,5,77.95803470000101,,,,,,,,,77.94277860000147,77.95803470000101,77.95803470000101,,78.57911349999995,z,0.6188442999991821,None,z,z,,,,005,001,2024-11-20_23h38.38.797,Lexical Decision Making,2024.1.5,None,2024-11-20 23h38.54.671575 +0530,
c l o u d,1.0,neutral,m,0,70,70,94,78.58932130000176,,,,,,,,,78.57966690000103,78.58932130000176,78.58932130000176,,79.25519179999901,m,0.6522036000023945,None,m,m,,,,005,001,2024-11-20_23h38.38.797,Lexical Decision Making,2024.1.5,None,2024-11-20 23h38.54.671575 +0530,
s a d n e s s,1.0,negative,m,0,71,71,88,79.27119809999931,,,,,,,,,79.25573799999984,79.27119809999931,79.27119809999931,,79.8875408999993,m,0.6064627999985532,None,m,m,,,,005,001,2024-11-20_23h38.38.797,Lexical Decision Making,2024.1.5,None,2024-11-20 23h38.54.671575 +0530,
g r i n d l e,0.0,non-word,z,0,72,72,3,79.9027903999995,,,,,,,,,79.88850110000203,79.9027903999995,79.9027903999995,,80.55174350000016,m,0.6398330000010901,None,m,z,,,,005,001,2024-11-20_23h38.38.797,Lexical Decision Making,2024.1.5,None,2024-11-20 23h38.54.671575 +0530,
s w o r p y,0.0,non-word,z,0,73,73,69,80.56741179999881,,,,,,,,,80.55227390000073,80.56741179999881,80.56741179999881,,81.28392860000167,z,0.7028661000003922,None,z,z,,,,005,001,2024-11-20_23h38.38.797,Lexical Decision Making,2024.1.5,None,2024-11-20 23h38.54.671575 +0530,
a c h i e v e m e n t,1.0,positive,m,0,74,74,27,81.29903009999907,,,,,,,,,81.28452580000157,81.29903009999907,81.29903009999907,,82.2473601999991,m,0.9361509000009391,None,m,m,,,,005,001,2024-11-20_23h38.38.797,Lexical Decision Making,2024.1.5,None,2024-11-20 23h38.54.671575 +0530,
m e t r o,1.0,neutral,m,0,75,75,96,82.2625494999993,,,,,,,,,82.2481770000013,82.2625494999993,82.2625494999993,,83.02863050000087,m,0.7589330000009795,None,m,m,,,,005,001,2024-11-20_23h38.38.797,Lexical Decision Making,2024.1.5,None,2024-11-20 23h38.54.671575 +0530,
a n g e r,1.0,negative,m,0,76,76,15,83.04373040000064,,,,,,,,,83.02936060000138,83.04373040000064,83.04373040000064,84.05781170000046,84.54074620000029,m,1.487996399999247,None,m,m,,,,005,001,2024-11-20_23h38.38.797,Lexical Decision Making,2024.1.5,None,2024-11-20 23h38.54.671575 +0530,
f e a r f u l,1.0,negative,m,0,77,77,98,84.55690709999908,,,,,,,,,84.54128920000221,84.55690709999908,84.55690709999908,,85.17230740000014,m,0.5991014999999607,None,m,m,,,,005,001,2024-11-20_23h38.38.797,Lexical Decision Making,2024.1.5,None,2024-11-20 23h38.54.671575 +0530,
c r y,1.0,negative,m,0,78,78,61,85.18821920000119,,,,,,,,,85.17286790000071,85.18821920000119,85.18821920000119,,86.00330480000048,m,0.8079878999997163,None,m,m,,,,005,001,2024-11-20_23h38.38.797,Lexical Decision Making,2024.1.5,None,2024-11-20 23h38.54.671575 +0530,
k i n d n e s s,1.0,positive,m,0,79,79,82,86.01900860000023,,,,,,,,,86.00384800000029,86.01900860000023,86.01900860000023,87.03298870000071,87.13380210000105,m,1.0995221000011952,None,m,m,,,,005,001,2024-11-20_23h38.38.797,Lexical Decision Making,2024.1.5,None,2024-11-20 23h38.54.671575 +0530,
c h e e r,1.0,positive,m,0,80,80,63,87.14960369999972,,,,,,,,,87.13435659999959,87.14960369999972,87.14960369999972,,87.78204720000213,m,0.6306796999997459,None,m,m,,,,005,001,2024-11-20_23h38.38.797,Lexical Decision Making,2024.1.5,None,2024-11-20 23h38.54.671575 +0530,
z a r f e t,0.0,non-word,z,0,81,81,31,87.79735580000124,,,,,,,,,87.78259809999872,87.79735580000124,87.79735580000124,,88.51335150000159,z,0.7080002000002423,None,z,z,,,,005,001,2024-11-20_23h38.38.797,Lexical Decision Making,2024.1.5,None,2024-11-20 23h38.54.671575 +0530,
d e l i g h t,1.0,positive,m,0,82,82,39,88.52931589999935,,,,,,,,,88.51388940000106,88.52931589999935,88.52931589999935,89.54259180000008,89.70973700000104,m,1.1696073999992223,None,m,m,,,,005,001,2024-11-20_23h38.38.797,Lexical Decision Making,2024.1.5,None,2024-11-20 23h38.54.671575 +0530,
c o m f o r t,1.0,positive,m,0,83,83,59,89.72541590000037,,,,,,,,,89.71029239999916,89.72541590000037,89.72541590000037,,90.35817769999994,m,0.623058500001207,None,m,m,,,,005,001,2024-11-20_23h38.38.797,Lexical Decision Making,2024.1.5,None,2024-11-20 23h38.54.671575 +0530,
c l o c k,1.0,neutral,m,0,84,84,20,90.37395390000165,,,,,,,,,90.35874070000136,90.37395390000165,90.37395390000165,91.38774310000008,91.47219469999982,m,1.0917441999990842,None,m,m,,,,005,001,2024-11-20_23h38.38.797,Lexical Decision Making,2024.1.5,None,2024-11-20 23h38.54.671575 +0530,
d r e n k,0.0,non-word,z,0,85,85,4,91.48781180000151,,,,,,,,,91.47273929999938,91.48781180000151,91.48781180000151,,92.22032160000163,z,0.7288260000023001,None,z,z,,,,005,001,2024-11-20_23h38.38.797,Lexical Decision Making,2024.1.5,None,2024-11-20 23h38.54.671575 +0530,
s m i l e,1.0,positive,m,0,86,86,55,92.2353503000013,,,,,,,,,92.22093329999916,92.2353503000013,92.2353503000013,93.24979580000218,93.79879770000116,m,1.5511210000004212,None,m,m,,,,005,001,2024-11-20_23h38.38.797,Lexical Decision Making,2024.1.5,None,2024-11-20 23h38.54.671575 +0530,
t r a g e d y,1.0,negative,m,0,87,87,70,93.81479690000197,,,,,,,,,93.79939260000174,93.81479690000197,93.81479690000197,94.82880110000042,94.97863900000084,m,1.1508108000016364,None,m,m,,,,005,001,2024-11-20_23h38.38.797,Lexical Decision Making,2024.1.5,None,2024-11-20 23h38.54.671575 +0530,
d r i n t,0.0,non-word,z,0,88,88,36,94.99435440000161,,,,,,,,,94.9791953999993,94.99435440000161,94.99435440000161,,95.95958570000221,z,0.9626968000011402,None,z,z,,,,005,001,2024-11-20_23h38.38.797,Lexical Decision Making,2024.1.5,None,2024-11-20 23h38.54.671575 +0530,
f a i l u r e,1.0,negative,m,0,89,89,77,95.97529639999993,,,,,,,,,95.9602756000022,95.97529639999993,95.97529639999993,96.98942700000043,97.77160400000139,m,1.795281700000487,None,m,m,,,,005,001,2024-11-20_23h38.38.797,Lexical Decision Making,2024.1.5,None,2024-11-20 23h38.54.671575 +0530,
c l i b b e t,0.0,non-word,z,0,90,90,12,97.78681069999948,,,,,,,,,97.77232880000156,97.78681069999948,97.78681069999948,98.8006916000013,98.93551320000188,z,1.1471649000013713,None,z,z,,,,005,001,2024-11-20_23h38.38.797,Lexical Decision Making,2024.1.5,None,2024-11-20 23h38.54.671575 +0530,
f e a r f u l,1.0,negative,m,0,91,91,2,98.95018270000219,,,,,,,,,98.9361592000023,98.95018270000219,98.95018270000219,99.96420500000022,100.48031600000104,m,1.5175595999971847,None,m,m,,,,005,001,2024-11-20_23h38.38.797,Lexical Decision Making,2024.1.5,None,2024-11-20 23h38.54.671575 +0530,
l a m p,1.0,neutral,m,0,92,92,42,100.4960241000008,,,,,,,,,100.48086390000026,100.4960241000008,100.4960241000008,101.50995080000212,101.6106452999993,m,1.1005840999969223,None,m,m,,,,005,001,2024-11-20_23h38.38.797,Lexical Decision Making,2024.1.5,None,2024-11-20 23h38.54.671575 +0530,
p l a r k,0.0,non-word,z,0,93,93,16,101.62622829999964,,,,,,,,,101.61118110000098,101.62622829999964,101.62622829999964,102.64032829999996,102.75818910000089,z,1.130246699998679,None,z,z,,,,005,001,2024-11-20_23h38.38.797,Lexical Decision Making,2024.1.5,None,2024-11-20 23h38.54.671575 +0530,
c a b l e,1.0,neutral,m,0,94,94,78,102.77314770000157,,,,,,,,,102.75892319999912,102.77314770000157,102.77314770000157,,103.63929610000196,m,0.8646981999991112,None,m,m,,,,005,001,2024-11-20_23h38.38.797,Lexical Decision Making,2024.1.5,None,2024-11-20 23h38.54.671575 +0530,
g r i e f,1.0,negative,m,0,95,95,81,103.65428629999951,,,,,,,,,103.63982830000168,103.65428629999951,103.65428629999951,104.66809339999963,105.25072949999958,m,1.5891467000001285,None,m,m,,,,005,001,2024-11-20_23h38.38.797,Lexical Decision Making,2024.1.5,None,2024-11-20 23h38.54.671575 +0530,
v o b l i t,0.0,non-word,z,0,96,96,38,105.26652269999977,,,,,,,,,105.25128250000125,105.26652269999977,105.26652269999977,106.28012379999927,106.84667740000077,z,1.5787162000015087,None,z,z,,,,005,001,2024-11-20_23h38.38.797,Lexical Decision Making,2024.1.5,None,2024-11-20 23h38.54.671575 +0530,
e x c i t e d,1.0,positive,m,0,97,97,10,106.86193930000081,,,,,,,,,106.84720970000126,106.86193930000081,106.86193930000081,107.87579860000187,109.24026579999918,m,2.3711698000006436,None,m,m,,,,005,001,2024-11-20_23h38.38.797,Lexical Decision Making,2024.1.5,None,2024-11-20 23h38.54.671575 +0530,
p a i n,1.0,negative,m,0,98,98,83,109.25593519999893,,,,,,,,,109.2407948,109.25593519999893,109.25593519999893,110.26938979999977,110.55328250000093,m,1.2868918999993184,None,m,m,,,,005,001,2024-11-20_23h38.38.797,Lexical Decision Making,2024.1.5,None,2024-11-20 23h38.54.671575 +0530,
c r i t i c i s m,1.0,negative,m,0,99,99,26,110.56884790000186,,,,,,,,,110.55381490000218,110.56884790000186,110.56884790000186,,111.23430079999889,m,0.6519388999986404,None,m,m,,,,005,001,2024-11-20_23h38.38.797,Lexical Decision Making,2024.1.5,None,2024-11-20 23h38.54.671575 +0530,
l o v e,1.0,positive,m,1,0,100,0,111.25032529999953,,,,,,,,,111.23483349999879,111.25032529999953,111.25032529999953,,111.89924930000052,m,0.6463490999994974,None,m,m,,,,005,001,2024-11-20_23h38.38.797,Lexical Decision Making,2024.1.5,None,2024-11-20 23h38.54.671575 +0530,
b r a s k,0.0,non-word,z,1,1,101,79,111.91482890000043,,,,,,,,,111.89978200000041,111.91482890000043,111.91482890000043,,112.74816660000215,z,0.8199941999992006,None,z,z,,,,005,001,2024-11-20_23h38.38.797,Lexical Decision Making,2024.1.5,None,2024-11-20 23h38.54.671575 +0530,
s u c c e s s,1.0,positive,m,1,2,102,35,112.76283479999984,,,,,,,,,112.74871920000078,112.76283479999984,112.76283479999984,,113.44528730000093,m,0.6734440999971412,None,m,m,,,,005,001,2024-11-20_23h38.38.797,Lexical Decision Making,2024.1.5,None,2024-11-20 23h38.54.671575 +0530,
s a d n e s s,1.0,negative,m,1,3,103,65,113.46105879999959,,,,,,,,,113.44582160000209,113.46105879999959,113.46105879999959,,114.14342469999974,m,0.6812729000012041,None,m,m,,,,005,001,2024-11-20_23h38.38.797,Lexical Decision Making,2024.1.5,None,2024-11-20 23h38.54.671575 +0530,
d r i n t,0.0,non-word,z,1,4,104,23,114.15977750000093,,,,,,,,,114.14397749999989,114.15977750000093,114.15977750000093,,115.02392229999896,z,0.8542661999999837,None,z,z,,,,005,001,2024-11-20_23h38.38.797,Lexical Decision Making,2024.1.5,None,2024-11-20 23h38.54.671575 +0530,
t a b l e,1.0,neutral,m,1,5,105,6,115.03967510000075,,,,,,,,,115.02447210000173,115.03967510000075,115.03967510000075,,115.72251010000036,m,0.6757618000010552,None,m,m,,,,005,001,2024-11-20_23h38.38.797,Lexical Decision Making,2024.1.5,None,2024-11-20 23h38.54.671575 +0530,
m i s e r y,1.0,negative,m,1,6,106,34,115.73771430000124,,,,,,,,,115.72305050000068,115.73771430000124,115.73771430000124,,116.653231100001,m,0.9019686999999976,None,m,m,,,,005,001,2024-11-20_23h38.38.797,Lexical Decision Making,2024.1.5,None,2024-11-20 23h38.54.671575 +0530,
l o s s,1.0,negative,m,1,7,107,29,116.66860440000164,,,,,,,,,116.6537883000019,116.66860440000164,116.66860440000164,117.68277519999901,117.66680500000075,m,0.9905815999991319,None,m,m,,,,005,001,2024-11-20_23h38.38.797,Lexical Decision Making,2024.1.5,None,2024-11-20 23h38.54.671575 +0530,
s w o r p y,0.0,non-word,z,1,8,108,69,117.68277519999901,,,,,,,,,117.66734440000073,117.68277519999901,117.68277519999901,,118.34817230000044,z,0.6575310000007448,None,z,z,,,,005,001,2024-11-20_23h38.38.797,Lexical Decision Making,2024.1.5,None,2024-11-20 23h38.54.671575 +0530,
s m a g l e,0.0,non-word,z,1,9,109,53,118.36383070000011,,,,,,,,,118.34870850000152,118.36383070000011,118.36383070000011,,119.1128826000022,z,0.738769699997647,None,z,z,,,,005,001,2024-11-20_23h38.38.797,Lexical Decision Making,2024.1.5,None,2024-11-20 23h38.54.671575 +0530,
s m o r n,0.0,non-word,z,1,10,110,14,119.12837900000159,,,,,,,,,119.11342299999887,119.12837900000159,119.12837900000159,,119.89411409999957,z,0.7538008999981685,None,z,z,,,,005,001,2024-11-20_23h38.38.797,Lexical Decision Making,2024.1.5,None,2024-11-20 23h38.54.671575 +0530,
g r i e f,1.0,negative,m,1,11,111,50,119.90956110000116,,,,,,,,,119.89487930000178,119.90956110000116,119.90956110000116,,120.57579059999989,m,0.6549312000024656,None,m,m,,,,005,001,2024-11-20_23h38.38.797,Lexical Decision Making,2024.1.5,None,2024-11-20 23h38.54.671575 +0530,
r e g r e t,1.0,negative,m,1,12,112,64,120.5916032999994,,,,,,,,,120.57631519999995,120.5916032999994,120.5916032999994,,121.50635200000033,m,0.9068922000005841,None,m,m,,,,005,001,2024-11-20_23h38.38.797,Lexical Decision Making,2024.1.5,None,2024-11-20 23h38.54.671575 +0530,
t w o r i k,0.0,non-word,z,1,13,113,93,121.52193869999974,,,,,,,,,121.50704179999957,121.52193869999974,121.52193869999974,,122.17164029999913,z,0.6349569000012707,None,z,z,,,,005,001,2024-11-20_23h38.38.797,Lexical Decision Making,2024.1.5,None,2024-11-20 23h38.54.671575 +0530,
j o y f u l,1.0,positive,m,1,14,114,19,122.1867530999989,,,,,,,,,122.17227900000216,122.1867530999989,122.1867530999989,,122.91935540000122,m,0.7209999000006064,None,m,m,,,,005,001,2024-11-20_23h38.38.797,Lexical Decision Making,2024.1.5,None,2024-11-20 23h38.54.671575 +0530,
h a t e,1.0,negative,m,1,15,115,74,122.93465990000186,,,,,,,,,122.91989789999934,122.93465990000186,122.93465990000186,123.9485984999992,123.98295470000085,m,1.0378751000025659,None,m,m,,,,005,001,2024-11-20_23h38.38.797,Lexical Decision Making,2024.1.5,None,2024-11-20 23h38.54.671575 +0530,
s a d n e s s,1.0,negative,m,1,16,116,88,123.99850890000016,,,,,,,,,123.98349080000116,123.99850890000016,123.99850890000016,,124.59821620000002,m,0.5861961000009615,None,m,m,,,,005,001,2024-11-20_23h38.38.797,Lexical Decision Making,2024.1.5,None,2024-11-20 23h38.54.671575 +0530,
s o r r o w,1.0,negative,m,1,17,117,33,124.6137361000001,,,,,,,,,124.59874879999916,124.6137361000001,124.6137361000001,,125.28014830000029,m,0.6595354999990377,None,m,m,,,,005,001,2024-11-20_23h38.38.797,Lexical Decision Making,2024.1.5,None,2024-11-20 23h38.54.671575 +0530,
f e a r f u l,1.0,negative,m,1,18,118,2,125.29513869999937,,,,,,,,,125.28068129999883,125.29513869999937,125.29513869999937,,125.8445606000023,m,0.5406365000017104,None,m,m,,,,005,001,2024-11-20_23h38.38.797,Lexical Decision Making,2024.1.5,None,2024-11-20 23h38.54.671575 +0530,
q u i b l e n,0.0,non-word,z,1,19,119,91,125.86039309999978,,,,,,,,,125.84509239999898,125.86039309999978,125.86039309999978,,126.52592089999962,z,0.6625549999989744,None,z,z,,,,005,001,2024-11-20_23h38.38.797,Lexical Decision Making,2024.1.5,None,2024-11-20 23h38.54.671575 +0530,
c a l e n d a r,1.0,neutral,m,1,20,120,86,126.54154290000224,,,,,,,,,126.52645549999943,126.54154290000224,126.54154290000224,,127.40697960000034,m,0.86272050000116,None,m,m,,,,005,001,2024-11-20_23h38.38.797,Lexical Decision Making,2024.1.5,None,2024-11-20 23h38.54.671575 +0530,
z o m p r e,0.0,non-word,z,1,21,121,73,127.42267840000204,,,,,,,,,127.40751180000007,127.42267840000204,127.42267840000204,,128.07189909999943,z,0.6397561999983736,None,z,z,,,,005,001,2024-11-20_23h38.38.797,Lexical Decision Making,2024.1.5,None,2024-11-20 23h38.54.671575 +0530,
l a m p,1.0,neutral,m,1,22,122,18,128.08735779999915,,,,,,,,,128.07243469999958,128.08735779999915,128.08735779999915,,128.70318939999925,m,0.602355200000602,None,m,m,,,,005,001,2024-11-20_23h38.38.797,Lexical Decision Making,2024.1.5,None,2024-11-20 23h38.54.671575 +0530,
a n g e r,1.0,negative,m,1,23,123,44,128.71936970000024,,,,,,,,,128.70371349999914,128.71936970000024,128.71936970000024,129.73278850000133,129.73386140000002,m,1.0033342999995511,None,m,m,,,,005,001,2024-11-20_23h38.38.797,Lexical Decision Making,2024.1.5,None,2024-11-20 23h38.54.671575 +0530,
p e a c e,1.0,positive,m,1,24,124,97,129.74956889999885,,,,,,,,,129.73442240000077,129.74956889999885,129.74956889999885,,130.26581029999943,m,0.5093589999996766,None,m,m,,,,005,001,2024-11-20_23h38.38.797,Lexical Decision Making,2024.1.5,None,2024-11-20 23h38.54.671575 +0530,
t r a i n,1.0,neutral,m,1,25,125,40,130.28127909999967,,,,,,,,,130.26635259999966,130.28127909999967,130.28127909999967,,130.91405410000152,m,0.6226786000006541,None,m,m,,,,005,001,2024-11-20_23h38.38.797,Lexical Decision Making,2024.1.5,None,2024-11-20 23h38.54.671575 +0530,
d e l i g h t,1.0,positive,m,1,26,126,39,130.92956659999982,,,,,,,,,130.91501150000113,130.92956659999982,130.92956659999982,,131.49611260000165,m,0.5496234000020195,None,m,m,,,,005,001,2024-11-20_23h38.38.797,Lexical Decision Making,2024.1.5,None,2024-11-20 23h38.54.671575 +0530,
f l o r t,0.0,non-word,z,1,27,127,11,131.51130310000008,,,,,,,,,131.49668559999918,131.51130310000008,131.51130310000008,,132.2274980000002,z,0.7152016999971238,None,z,z,,,,005,001,2024-11-20_23h38.38.797,Lexical Decision Making,2024.1.5,None,2024-11-20 23h38.54.671575 +0530,
l a w v e r,0.0,non-word,z,1,28,128,76,132.2425886000019,,,,,,,,,132.22821720000138,132.2425886000019,132.2425886000019,,132.92532980000033,z,0.680241300000489,None,z,z,,,,005,001,2024-11-20_23h38.38.797,Lexical Decision Making,2024.1.5,None,2024-11-20 23h38.54.671575 +0530,
g r i e f,1.0,negative,m,1,29,129,62,132.94098210000084,,,,,,,,,132.92586200000005,132.94098210000084,132.94098210000084,,133.5233748999999,m,0.5745132000010926,None,m,m,,,,005,001,2024-11-20_23h38.38.797,Lexical Decision Making,2024.1.5,None,2024-11-20 23h38.54.671575 +0530,
w i n d o w,1.0,neutral,m,1,30,130,80,133.53907809999873,,,,,,,,,133.5239029000004,133.53907809999873,133.53907809999873,,134.4714286999988,m,0.9304307999991579,None,m,m,,,,005,001,2024-11-20_23h38.38.797,Lexical Decision Making,2024.1.5,None,2024-11-20 23h38.54.671575 +0530,
c l o c k,1.0,neutral,m,1,31,131,20,134.48675139999978,,,,,,,,,134.47201539999878,134.48675139999978,134.48675139999978,,135.06948900000134,m,0.5682319999978063,None,m,m,,,,005,001,2024-11-20_23h38.38.797,Lexical Decision Making,2024.1.5,None,2024-11-20 23h38.54.671575 +0530,
c l i b b e t,0.0,non-word,z,1,32,132,12,135.08488360000047,,,,,,,,,135.07002869999997,135.08488360000047,135.08488360000047,,135.75101930000164,z,0.6631729999971867,None,z,z,,,,005,001,2024-11-20_23h38.38.797,Lexical Decision Making,2024.1.5,None,2024-11-20 23h38.54.671575 +0530,
g r i n d l e,0.0,non-word,z,1,33,133,54,135.7666418000008,,,,,,,,,135.75155079999968,135.7666418000008,135.7666418000008,,136.33268899999894,m,0.5529542000003858,None,m,z,,,,005,001,2024-11-20_23h38.38.797,Lexical Decision Making,2024.1.5,None,2024-11-20 23h38.54.671575 +0530,
c h a i r,1.0,neutral,m,1,34,134,7,136.34802180000042,,,,,,,,,136.33323089999976,136.34802180000042,136.34802180000042,,137.06400940000094,m,0.7129717999996501,None,m,m,,,,005,001,2024-11-20_23h38.38.797,Lexical Decision Making,2024.1.5,None,2024-11-20 23h38.54.671575 +0530,
m u r k l e,0.0,non-word,z,1,35,135,66,137.0795001000006,,,,,,,,,137.06456140000228,137.0795001000006,137.0795001000006,,137.79540289999932,z,0.7148415999981808,None,z,z,,,,005,001,2024-11-20_23h38.38.797,Lexical Decision Making,2024.1.5,None,2024-11-20 23h38.54.671575 +0530,
d r e a m,1.0,positive,m,1,36,136,9,137.81108600000152,,,,,,,,,137.7959332999999,137.81108600000152,137.81108600000152,138.82462210000085,139.09196130000055,m,1.2775029000003997,None,m,m,,,,005,001,2024-11-20_23h38.38.797,Lexical Decision Making,2024.1.5,None,2024-11-20 23h38.54.671575 +0530,
s u n s h i n e,1.0,positive,m,1,37,137,30,139.10723890000008,,,,,,,,,139.09251510000104,139.10723890000008,139.10723890000008,,139.94061150000198,m,0.8321509000015794,None,m,m,,,,005,001,2024-11-20_23h38.38.797,Lexical Decision Making,2024.1.5,None,2024-11-20 23h38.54.671575 +0530,
c l o c k,1.0,neutral,m,1,38,138,48,139.95516530000168,,,,,,,,,139.9411411000001,139.95516530000168,139.95516530000168,140.96888070000205,141.51842509999915,m,1.5608545000031882,None,m,m,,,,005,001,2024-11-20_23h38.38.797,Lexical Decision Making,2024.1.5,None,2024-11-20 23h38.54.671575 +0530,
p e n c i l,1.0,neutral,m,1,39,139,24,141.53422800000044,,,,,,,,,141.51895539999896,141.53422800000044,141.53422800000044,,142.14989760000026,m,0.6012324999974226,None,m,m,,,,005,001,2024-11-20_23h38.38.797,Lexical Decision Making,2024.1.5,None,2024-11-20 23h38.54.671575 +0530,
b o o k,1.0,neutral,m,1,40,140,22,142.16837550000128,,,,,,,,,142.15044080000007,142.16837550000128,142.16837550000128,143.17959379999957,144.4270620999996,m,2.2522374000000127,None,m,m,,,,005,001,2024-11-20_23h38.38.797,Lexical Decision Making,2024.1.5,None,2024-11-20 23h38.54.671575 +0530,
c r i t i c i s m,1.0,negative,m,1,41,141,26,144.44280290000097,,,,,,,,,144.4275899000022,144.44280290000097,144.44280290000097,,145.05892210000093,m,0.6086572999993223,None,m,m,,,,005,001,2024-11-20_23h38.38.797,Lexical Decision Making,2024.1.5,None,2024-11-20 23h38.54.671575 +0530,
p l a n e t,1.0,neutral,m,1,42,142,47,145.0744648,,,,,,,,,145.0594478999992,145.0744648,145.0744648,146.08866879999914,146.17225759999928,m,1.0960386999977345,None,m,m,,,,005,001,2024-11-20_23h38.38.797,Lexical Decision Making,2024.1.5,None,2024-11-20 23h38.54.671575 +0530,
m o u n t a i n,1.0,neutral,m,1,43,143,71,146.1879239000009,,,,,,,,,146.1728476999997,146.1879239000009,146.1879239000009,147.20186449999892,147.76827330000015,m,1.5646548999975494,None,m,m,,,,005,001,2024-11-20_23h38.38.797,Lexical Decision Making,2024.1.5,None,2024-11-20 23h38.54.671575 +0530,
c a b l e,1.0,neutral,m,1,44,144,78,147.78353210000205,,,,,,,,,147.769003100002,147.78353210000205,147.78353210000205,148.79736760000014,149.54624909999984,m,1.7563931000004231,None,m,m,,,,005,001,2024-11-20_23h38.38.797,Lexical Decision Making,2024.1.5,None,2024-11-20 23h38.54.671575 +0530,
h a p p y,1.0,positive,m,1,45,145,21,149.56258900000103,,,,,,,,,149.54677780000202,149.56258900000103,149.56258900000103,150.5759192000005,151.70699070000046,m,2.1397169999981998,None,m,m,,,,005,001,2024-11-20_23h38.38.797,Lexical Decision Making,2024.1.5,None,2024-11-20 23h38.54.671575 +0530,
g r i e f,1.0,negative,m,1,46,146,81,151.7231639999991,,,,,,,,,151.70753329999934,151.7231639999991,151.7231639999991,152.7365890000001,153.17002060000232,m,1.440968899998552,None,m,m,,,,005,001,2024-11-20_23h38.38.797,Lexical Decision Making,2024.1.5,None,2024-11-20 23h38.54.671575 +0530,
p l a r k,0.0,non-word,z,1,47,147,45,153.18559780000214,,,,,,,,,153.1705671000018,153.18559780000214,153.18559780000214,,154.08437889999914,z,0.8923229999963951,None,z,z,,,,005,001,2024-11-20_23h38.38.797,Lexical Decision Making,2024.1.5,None,2024-11-20 23h38.54.671575 +0530,
b l o r p,0.0,non-word,z,1,48,148,5,154.09960599999977,,,,,,,,,154.0849178999997,154.09960599999977,154.09960599999977,155.11339769999904,155.2808236000019,z,1.1785457000005408,None,z,z,,,,005,001,2024-11-20_23h38.38.797,Lexical Decision Making,2024.1.5,None,2024-11-20 23h38.54.671575 +0530,
c o m f o r t,1.0,positive,m,1,49,149,59,155.29649900000004,,,,,,,,,155.28135829999883,155.29649900000004,155.29649900000004,156.3100704999997,156.7269039999992,m,1.414657299999817,None,m,m,,,,005,001,2024-11-20_23h38.38.797,Lexical Decision Making,2024.1.5,None,2024-11-20 23h38.54.671575 +0530,
d r o n t,0.0,non-word,z,1,50,150,95,156.74239579999994,,,,,,,,,156.7274475000013,156.74239579999994,156.74239579999994,,157.6242072999994,z,0.8667442000005394,None,z,z,,,,005,001,2024-11-20_23h38.38.797,Lexical Decision Making,2024.1.5,None,2024-11-20 23h38.54.671575 +0530,
w i n d o w,1.0,neutral,m,1,51,151,68,157.64015180000206,,,,,,,,,157.6247598000009,157.64015180000206,157.64015180000206,158.6539206999987,158.6549565000023,m,1.0066783999973268,None,m,m,,,,005,001,2024-11-20_23h38.38.797,Lexical Decision Making,2024.1.5,None,2024-11-20 23h38.54.671575 +0530,
p l a r k,0.0,non-word,z,1,52,152,16,158.6704178,,,,,,,,,158.6554854999995,158.6704178,158.6704178,,159.4206465999996,z,0.7406274999993911,None,z,z,,,,005,001,2024-11-20_23h38.38.797,Lexical Decision Making,2024.1.5,None,2024-11-20 23h38.54.671575 +0530,
e x c i t e d,1.0,positive,m,1,53,153,10,159.43508080000174,,,,,,,,,159.42139600000155,159.43508080000174,159.43508080000174,,160.13412700000117,m,0.6866364999987127,None,m,m,,,,005,001,2024-11-20_23h38.38.797,Lexical Decision Making,2024.1.5,None,2024-11-20 23h38.54.671575 +0530,
g r u f f i l,0.0,non-word,z,1,54,154,49,160.1496858999999,,,,,,,,,160.13466690000132,160.1496858999999,160.1496858999999,,160.8490466000003,z,0.6827040999996825,None,z,z,,,,005,001,2024-11-20_23h38.38.797,Lexical Decision Making,2024.1.5,None,2024-11-20 23h38.54.671575 +0530,
p a i n,1.0,negative,m,1,55,155,83,160.86467230000198,,,,,,,,,160.84958879999976,160.86467230000198,160.86467230000198,,161.630353200002,m,0.7496965999998793,None,m,m,,,,005,001,2024-11-20_23h38.38.797,Lexical Decision Making,2024.1.5,None,2024-11-20 23h38.54.671575 +0530,
t r a g e d y,1.0,negative,m,1,56,156,70,161.64576170000146,,,,,,,,,161.63088939999943,161.64576170000146,161.64576170000146,,162.57729610000024,m,0.9230633000006492,None,m,m,,,,005,001,2024-11-20_23h38.38.797,Lexical Decision Making,2024.1.5,None,2024-11-20 23h38.54.671575 +0530,
w a r,1.0,negative,m,1,57,157,67,162.59349920000022,,,,,,,,,162.5778289000009,162.59349920000022,162.59349920000022,,163.1591253000006,m,0.5566077999974368,None,m,m,,,,005,001,2024-11-20_23h38.38.797,Lexical Decision Making,2024.1.5,None,2024-11-20 23h38.54.671575 +0530,
c h e e r,1.0,positive,m,1,58,158,63,163.1746475,,,,,,,,,163.15965979999964,163.1746475,163.1746475,,163.75797460000103,m,0.5813075000005483,None,m,m,,,,005,001,2024-11-20_23h38.38.797,Lexical Decision Making,2024.1.5,None,2024-11-20 23h38.54.671575 +0530,
d e s p a i r,1.0,negative,m,1,59,159,56,163.77331930000219,,,,,,,,,163.75851890000195,163.77331930000219,163.77331930000219,,164.23991810000007,m,0.45407279999926686,None,m,m,,,,005,001,2024-11-20_23h38.38.797,Lexical Decision Making,2024.1.5,None,2024-11-20 23h38.54.671575 +0530,
p e a c e,1.0,positive,m,1,60,160,89,164.25535780000064,,,,,,,,,164.24046630000157,164.25535780000064,164.25535780000064,,164.73861880000186,m,0.4764199999990524,None,m,m,,,,005,001,2024-11-20_23h38.38.797,Lexical Decision Making,2024.1.5,None,2024-11-20 23h38.54.671575 +0530,
t r e n k,0.0,non-word,z,1,61,161,57,164.75380280000172,,,,,,,,,164.73917640000218,164.75380280000172,164.75380280000172,,165.38642080000136,z,0.6179451999996672,None,z,z,,,,005,001,2024-11-20_23h38.38.797,Lexical Decision Making,2024.1.5,None,2024-11-20 23h38.54.671575 +0530,
f e a r f u l,1.0,negative,m,1,62,162,98,165.40224170000147,,,,,,,,,165.38695459999872,165.40224170000147,165.40224170000147,,166.1676425000005,m,0.751177899997856,None,m,m,,,,005,001,2024-11-20_23h38.38.797,Lexical Decision Making,2024.1.5,None,2024-11-20 23h38.54.671575 +0530,
k i n d n e s s,1.0,positive,m,1,63,163,82,166.18324750000102,,,,,,,,,166.16817250000167,166.18324750000102,166.18324750000102,,166.93209879999995,m,0.7337864000000991,None,m,m,,,,005,001,2024-11-20_23h38.38.797,Lexical Decision Making,2024.1.5,None,2024-11-20 23h38.54.671575 +0530,
c r y,1.0,negative,m,1,64,164,61,166.94772840000223,,,,,,,,,166.9326641000007,166.94772840000223,166.94772840000223,,167.64694090000194,m,0.6851147999987006,None,m,m,,,,005,001,2024-11-20_23h38.38.797,Lexical Decision Making,2024.1.5,None,2024-11-20 23h38.54.671575 +0530,
z a r f e t,0.0,non-word,z,1,65,165,31,167.6627038000006,,,,,,,,,167.6475160000009,167.6627038000006,167.6627038000006,,168.24535359999936,z,0.5663951000024099,None,z,z,,,,005,001,2024-11-20_23h38.38.797,Lexical Decision Making,2024.1.5,None,2024-11-20 23h38.54.671575 +0530,
s m i l e,1.0,positive,m,1,66,166,55,168.2614668999995,,,,,,,,,168.24590140000146,168.2614668999995,168.2614668999995,169.27498550000018,169.29294370000207,m,1.0303073000031873,None,m,m,,,,005,001,2024-11-20_23h38.38.797,Lexical Decision Making,2024.1.5,None,2024-11-20 23h38.54.671575 +0530,
p e n c i l,1.0,neutral,m,1,67,167,37,169.3079011000009,,,,,,,,,169.2936633999998,169.3079011000009,169.3079011000009,170.32173909999983,170.85500940000202,m,1.5312365999998292,None,m,m,,,,005,001,2024-11-20_23h38.38.797,Lexical Decision Making,2024.1.5,None,2024-11-20 23h38.54.671575 +0530,
g l o r b y,0.0,non-word,z,1,68,168,28,170.8707835999994,,,,,,,,,170.85554520000005,170.8707835999994,170.8707835999994,,171.4702185999995,z,0.595167900002707,None,z,z,,,,005,001,2024-11-20_23h38.38.797,Lexical Decision Making,2024.1.5,None,2024-11-20 23h38.54.671575 +0530,
g r i n d l e,0.0,non-word,z,1,69,169,3,171.48542160000216,,,,,,,,,171.47075210000185,171.48542160000216,171.48542160000216,172.4992177000022,172.91596969999955,z,1.4137253999979293,None,z,z,,,,005,001,2024-11-20_23h38.38.797,Lexical Decision Making,2024.1.5,None,2024-11-20 23h38.54.671575 +0530,
v i c t o r y,1.0,positive,m,1,70,170,25,172.9320700999997,,,,,,,,,172.91649800000232,172.9320700999997,172.9320700999997,,173.5809044000016,m,0.6463808000007703,None,m,m,,,,005,001,2024-11-20_23h38.38.797,Lexical Decision Making,2024.1.5,None,2024-11-20 23h38.54.671575 +0530,
c h e e r f u l,1.0,positive,m,1,71,171,43,173.59617060000164,,,,,,,,,173.5814363999998,173.59617060000164,173.59617060000164,174.61071019999872,174.64442250000138,m,1.0442084999995132,None,m,m,,,,005,001,2024-11-20_23h38.38.797,Lexical Decision Making,2024.1.5,None,2024-11-20 23h38.54.671575 +0530,
e x c i t e d,1.0,positive,m,1,72,172,72,174.66031590000057,,,,,,,,,174.6449547000011,174.66031590000057,174.66031590000057,,175.2097532000007,m,0.5472339000007196,None,m,m,,,,005,001,2024-11-20_23h38.38.797,Lexical Decision Making,2024.1.5,None,2024-11-20 23h38.54.671575 +0530,
f a i l u r e,1.0,negative,m,1,73,173,77,175.22570619999897,,,,,,,,,175.2102956000017,175.22570619999897,175.22570619999897,,175.97407300000123,m,0.733316100002412,None,m,m,,,,005,001,2024-11-20_23h38.38.797,Lexical Decision Making,2024.1.5,None,2024-11-20 23h38.54.671575 +0530,
l o m e b,0.0,non-word,z,1,74,174,90,175.9899499000021,,,,,,,,,175.97460929999943,175.9899499000021,175.9899499000021,,176.6394106000007,z,0.6414612999978999,None,z,z,,,,005,001,2024-11-20_23h38.38.797,Lexical Decision Making,2024.1.5,None,2024-11-20 23h38.54.671575 +0530,
c r i o u s,0.0,non-word,z,1,75,175,99,176.65499360000103,,,,,,,,,176.63997139999992,176.65499360000103,176.65499360000103,,177.57045579999976,m,0.9140952000016114,None,m,z,,,,005,001,2024-11-20_23h38.38.797,Lexical Decision Making,2024.1.5,None,2024-11-20 23h38.54.671575 +0530,
b o t t l e,1.0,neutral,m,1,76,176,58,177.58586529999957,,,,,,,,,177.57098659999974,177.58586529999957,177.58586529999957,,178.5173422000007,m,0.9244063000005553,None,m,m,,,,005,001,2024-11-20_23h38.38.797,Lexical Decision Making,2024.1.5,None,2024-11-20 23h38.54.671575 +0530,
s m i l e,1.0,positive,m,1,77,177,92,178.5330725999993,,,,,,,,,178.51787469999908,178.5330725999993,178.5330725999993,,179.2157088999993,m,0.6793907999999647,None,m,m,,,,005,001,2024-11-20_23h38.38.797,Lexical Decision Making,2024.1.5,None,2024-11-20 23h38.54.671575 +0530,
d r e n k,0.0,non-word,z,1,78,178,4,179.23082400000203,,,,,,,,,179.2162704000002,179.23082400000203,179.23082400000203,,179.86391450000156,z,0.630265200001304,None,z,z,,,,005,001,2024-11-20_23h38.38.797,Lexical Decision Making,2024.1.5,None,2024-11-20 23h38.54.671575 +0530,
s m o r n,0.0,non-word,z,1,79,179,51,179.87907769999947,,,,,,,,,179.86443770000187,179.87907769999947,179.87907769999947,,180.76127220000126,z,0.8717725999995309,None,z,z,,,,005,001,2024-11-20_23h38.38.797,Lexical Decision Making,2024.1.5,None,2024-11-20 23h38.54.671575 +0530,
a n g e r,1.0,negative,m,1,80,180,15,180.77659689999928,,,,,,,,,180.76182479999989,180.77659689999928,180.77659689999928,,181.60893000000215,m,0.8154905999981565,None,m,m,,,,005,001,2024-11-20_23h38.38.797,Lexical Decision Making,2024.1.5,None,2024-11-20 23h38.54.671575 +0530,
c h i n d l e,0.0,non-word,z,1,81,181,8,181.62429450000127,,,,,,,,,181.60945830000128,181.62429450000127,181.62429450000127,,182.42362800000046,m,0.7960982000004151,None,m,z,,,,005,001,2024-11-20_23h38.38.797,Lexical Decision Making,2024.1.5,None,2024-11-20 23h38.54.671575 +0530,
g r a t i t u d e,1.0,positive,m,1,82,182,41,182.43886470000143,,,,,,,,,182.42416520000188,182.43886470000143,182.43886470000143,183.45287430000099,184.06851200000165,m,1.614669499998854,None,m,m,,,,005,001,2024-11-20_23h38.38.797,Lexical Decision Making,2024.1.5,None,2024-11-20 23h38.54.671575 +0530,
v o b l i t,0.0,non-word,z,1,83,183,38,184.0843292999998,,,,,,,,,184.06939010000133,184.0843292999998,184.0843292999998,,184.76673270000174,z,0.6752344000015,None,z,z,,,,005,001,2024-11-20_23h38.38.797,Lexical Decision Making,2024.1.5,None,2024-11-20 23h38.54.671575 +0530,
p l o r,0.0,non-word,z,1,84,184,52,184.78250820000176,,,,,,,,,184.76743700000225,184.78250820000176,184.78250820000176,,185.74784179999915,z,0.9628029999985301,None,z,z,,,,005,001,2024-11-20_23h38.38.797,Lexical Decision Making,2024.1.5,None,2024-11-20 23h38.54.671575 +0530,
d r i n t,0.0,non-word,z,1,85,185,36,185.763283100001,,,,,,,,,185.7483710000015,185.763283100001,185.763283100001,186.7776984000011,186.84528710000086,z,1.080783400000655,None,z,z,,,,005,001,2024-11-20_23h38.38.797,Lexical Decision Making,2024.1.5,None,2024-11-20 23h38.54.671575 +0530,
g r i n d l e,0.0,non-word,z,1,86,186,17,186.86006270000144,,,,,,,,,186.84581930000058,186.86006270000144,186.86006270000144,,187.70895680000103,m,0.836933799997496,None,m,z,,,,005,001,2024-11-20_23h38.38.797,Lexical Decision Making,2024.1.5,None,2024-11-20 23h38.54.671575 +0530,
h o p e,1.0,positive,m,1,87,187,46,187.72430750000058,,,,,,,,,187.70949230000042,187.72430750000058,187.72430750000058,,188.6560098000009,m,0.9174993000015093,None,m,m,,,,005,001,2024-11-20_23h38.38.797,Lexical Decision Making,2024.1.5,None,2024-11-20 23h38.54.671575 +0530,
c l o u d,1.0,neutral,m,1,88,188,94,188.67172330000176,,,,,,,,,188.65654939999877,188.67172330000176,188.67172330000176,,189.27125159999923,m,0.5972684000007575,None,m,m,,,,005,001,2024-11-20_23h38.38.797,Lexical Decision Making,2024.1.5,None,2024-11-20 23h38.54.671575 +0530,
c a r p e t,1.0,neutral,m,1,89,189,85,189.28662350000013,,,,,,,,,189.27180719999888,189.28662350000013,189.28662350000013,,189.91979609999908,m,0.6267664999977569,None,m,m,,,,005,001,2024-11-20_23h38.38.797,Lexical Decision Making,2024.1.5,None,2024-11-20 23h38.54.671575 +0530,
b l o r p,0.0,non-word,z,1,90,190,84,189.9350173999992,,,,,,,,,189.92036070000177,189.9350173999992,189.9350173999992,,190.58514400000058,z,0.6371684999976424,None,z,z,,,,005,001,2024-11-20_23h38.38.797,Lexical Decision Making,2024.1.5,None,2024-11-20 23h38.54.671575 +0530,
c e l e b r a t i o n,1.0,positive,m,1,91,191,75,190.5998256999992,,,,,,,,,190.58578169999964,190.5998256999992,190.5998256999992,191.61398950000148,192.2633124999993,m,1.6614121000020532,None,m,m,,,,005,001,2024-11-20_23h38.38.797,Lexical Decision Making,2024.1.5,None,2024-11-20 23h38.54.671575 +0530,
v a b l i n,0.0,non-word,z,1,92,192,1,192.27883610000208,,,,,,,,,192.2638521000008,192.27883610000208,192.27883610000208,193.29244309999922,193.27704300000187,z,0.9815060000000813,None,z,z,,,,005,001,2024-11-20_23h38.38.797,Lexical Decision Making,2024.1.5,None,2024-11-20 23h38.54.671575 +0530,
a c h i e v e m e n t,1.0,positive,m,1,93,193,27,193.29244309999922,,,,,,,,,193.2776027,193.29244309999922,193.29244309999922,,194.05824610000127,m,0.7534823999994842,None,m,m,,,,005,001,2024-11-20_23h38.38.797,Lexical Decision Making,2024.1.5,None,2024-11-20 23h38.54.671575 +0530,
b l o r p,0.0,non-word,z,1,94,194,60,194.07354399999895,,,,,,,,,194.05877429999964,194.07354399999895,194.07354399999895,,195.03887790000226,m,0.9525290000019595,None,m,z,,,,005,001,2024-11-20_23h38.38.797,Lexical Decision Making,2024.1.5,None,2024-11-20 23h38.54.671575 +0530,
m e t r o,1.0,neutral,m,1,95,195,96,195.05455770000117,,,,,,,,,195.03941209999903,195.05455770000117,195.05455770000117,,195.67045839999992,m,0.6096864999999525,None,m,m,,,,005,001,2024-11-20_23h38.38.797,Lexical Decision Making,2024.1.5,None,2024-11-20 23h38.54.671575 +0530,
s t o n e,1.0,neutral,m,1,96,196,13,195.68660309999905,,,,,,,,,195.67099400000006,195.68660309999905,195.68660309999905,,196.25194140000167,m,0.558023300000059,None,m,m,,,,005,001,2024-11-20_23h38.38.797,Lexical Decision Making,2024.1.5,None,2024-11-20 23h38.54.671575 +0530,
s a d,1.0,negative,m,1,97,197,87,196.26769699999932,,,,,,,,,196.25248780000038,196.26769699999932,196.26769699999932,,196.83410450000156,m,0.564638299998478,None,m,m,,,,005,001,2024-11-20_23h38.38.797,Lexical Decision Making,2024.1.5,None,2024-11-20 23h38.54.671575 +0530,
a p p l e,1.0,neutral,m,1,98,198,32,196.849371100001,,,,,,,,,196.8346418000001,196.849371100001,196.849371100001,,197.38265650000176,m,0.5317705999987083,None,m,m,,,,005,001,2024-11-20_23h38.38.797,Lexical Decision Making,2024.1.5,None,2024-11-20 23h38.54.671575 +0530,
l a m p,1.0,neutral,m,1,99,199,42,197.39802469999995,,,,,,,,,197.38318540000182,197.39802469999995,197.39802469999995,,197.9647444000002,m,0.5648332999990089,None,m,m,,,,005,001,2024-11-20_23h38.38.797,Lexical Decision Making,2024.1.5,None,2024-11-20 23h38.54.671575 +0530,
s m o r n,0.0,non-word,z,2,0,200,14,197.9796494000002,,,,,,,,,197.96528540000145,197.9796494000002,197.9796494000002,,198.51271270000143,m,0.5306058999995003,None,m,z,,,,005,001,2024-11-20_23h38.38.797,Lexical Decision Making,2024.1.5,None,2024-11-20 23h38.54.671575 +0530,
z a r f e t,0.0,non-word,z,2,1,201,31,198.52844480000203,,,,,,,,,198.5132459000015,198.52844480000203,198.52844480000203,,199.42692940000052,z,0.8860366000008071,None,z,z,,,,005,001,2024-11-20_23h38.38.797,Lexical Decision Making,2024.1.5,None,2024-11-20 23h38.54.671575 +0530,
b l o r p,0.0,non-word,z,2,2,202,60,199.44243379999898,,,,,,,,,199.4277804000012,199.44243379999898,199.44243379999898,200.45642660000158,200.4907220999994,z,1.0317984000030265,None,z,z,,,,005,001,2024-11-20_23h38.38.797,Lexical Decision Making,2024.1.5,None,2024-11-20 23h38.54.671575 +0530,
c h e e r,1.0,positive,m,2,3,203,63,200.5065878000023,,,,,,,,,200.49127000000226,200.5065878000023,200.5065878000023,201.5201502000018,201.62087360000078,m,1.1000352000010025,None,m,m,,,,005,001,2024-11-20_23h38.38.797,Lexical Decision Making,2024.1.5,None,2024-11-20 23h38.54.671575 +0530,
s a d,1.0,negative,m,2,4,204,87,201.63655909999943,,,,,,,,,201.62157379999917,201.63655909999943,201.63655909999943,,202.21945210000194,m,0.5817281000017829,None,m,m,,,,005,001,2024-11-20_23h38.38.797,Lexical Decision Making,2024.1.5,None,2024-11-20 23h38.54.671575 +0530,
h a p p y,1.0,positive,m,2,5,205,21,202.2348536999998,,,,,,,,,202.22039310000036,202.2348536999998,202.2348536999998,,202.7512467000015,m,0.5114514000015333,None,m,m,,,,005,001,2024-11-20_23h38.38.797,Lexical Decision Making,2024.1.5,None,2024-11-20 23h38.54.671575 +0530,
s u n s h i n e,1.0,positive,m,2,6,206,30,202.76684609999938,,,,,,,,,202.75176890000148,202.76684609999938,202.76684609999938,,203.46563160000005,m,0.6943754999992962,None,m,m,,,,005,001,2024-11-20_23h38.38.797,Lexical Decision Making,2024.1.5,None,2024-11-20 23h38.54.671575 +0530,
c l i b b e t,0.0,non-word,z,2,7,207,12,203.48171290000028,,,,,,,,,203.4661554000013,203.48171290000028,203.48171290000028,,204.29723060000106,z,0.8016166000015801,None,z,z,,,,005,001,2024-11-20_23h38.38.797,Lexical Decision Making,2024.1.5,None,2024-11-20 23h38.54.671575 +0530,
c r i t i c i s m,1.0,negative,m,2,8,208,26,204.31220310000208,,,,,,,,,204.29781360000197,204.31220310000208,204.31220310000208,,205.16106750000108,m,0.8426927000000433,None,m,m,,,,005,001,2024-11-20_23h38.38.797,Lexical Decision Making,2024.1.5,None,2024-11-20 23h38.54.671575 +0530,
l o m e b,0.0,non-word,z,2,9,209,90,205.1766588999999,,,,,,,,,205.1616040000008,205.1766588999999,205.1766588999999,,206.02541589999964,z,0.8463658000000578,None,z,z,,,,005,001,2024-11-20_23h38.38.797,Lexical Decision Making,2024.1.5,None,2024-11-20 23h38.54.671575 +0530,
d e s p a i r,1.0,negative,m,2,10,210,56,206.04131029999917,,,,,,,,,206.0259389999992,206.04131029999917,206.04131029999917,,206.7404604000003,m,0.6885599000015645,None,m,m,,,,005,001,2024-11-20_23h38.38.797,Lexical Decision Making,2024.1.5,None,2024-11-20 23h38.54.671575 +0530,
g r i e f,1.0,negative,m,2,11,211,50,206.7559891000019,,,,,,,,,206.741246900001,206.7559891000019,206.7559891000019,,207.4218490000021,m,0.6540582000016002,None,m,m,,,,005,001,2024-11-20_23h38.38.797,Lexical Decision Making,2024.1.5,None,2024-11-20 23h38.54.671575 +0530,
b l o r p,0.0,non-word,z,2,12,212,84,207.43713280000156,,,,,,,,,207.4223807999988,207.43713280000156,207.43713280000156,,208.1365239000006,m,0.6891828999978316,None,m,z,,,,005,001,2024-11-20_23h38.38.797,Lexical Decision Making,2024.1.5,None,2024-11-20 23h38.54.671575 +0530,
d r i n t,0.0,non-word,z,2,13,213,23,208.152086099999,,,,,,,,,208.13705420000042,208.152086099999,208.152086099999,209.16573860000062,209.26700650000203,z,1.1118870000027528,None,z,z,,,,005,001,2024-11-20_23h38.38.797,Lexical Decision Making,2024.1.5,None,2024-11-20 23h38.54.671575 +0530,
p a i n,1.0,negative,m,2,14,214,83,209.28204800000094,,,,,,,,,209.26754150000124,209.28204800000094,209.28204800000094,,209.9645999000022,m,0.6672097000009671,None,m,m,,,,005,001,2024-11-20_23h38.38.797,Lexical Decision Making,2024.1.5,None,2024-11-20 23h38.54.671575 +0530,
f e a r f u l,1.0,negative,m,2,15,215,98,209.9801460000017,,,,,,,,,209.96512860000075,209.9801460000017,209.9801460000017,,210.79569880000054,m,0.8048964999979944,None,m,m,,,,005,001,2024-11-20_23h38.38.797,Lexical Decision Making,2024.1.5,None,2024-11-20 23h38.54.671575 +0530,
m u r k l e,0.0,non-word,z,2,16,216,66,210.81127109999943,,,,,,,,,210.79623170000195,210.81127109999943,210.81127109999943,,211.44439789999888,z,0.6236332000007678,None,z,z,,,,005,001,2024-11-20_23h38.38.797,Lexical Decision Making,2024.1.5,None,2024-11-20 23h38.54.671575 +0530,
c h a i r,1.0,neutral,m,2,17,217,7,211.4596688999991,,,,,,,,,211.44492199999877,211.4596688999991,211.4596688999991,,212.02586390000215,m,0.560389700000087,None,m,m,,,,005,001,2024-11-20_23h38.38.797,Lexical Decision Making,2024.1.5,None,2024-11-20 23h38.54.671575 +0530,
m o u n t a i n,1.0,neutral,m,2,18,218,71,212.04184499999974,,,,,,,,,212.0265900000013,212.04184499999974,212.04184499999974,,212.89022350000232,m,0.8445853000011994,None,m,m,,,,005,001,2024-11-20_23h38.38.797,Lexical Decision Making,2024.1.5,None,2024-11-20 23h38.54.671575 +0530,
s w o r p y,0.0,non-word,z,2,19,219,69,212.9057716999996,,,,,,,,,212.89075030000095,212.9057716999996,212.9057716999996,,213.6713211999995,z,0.7608622999978252,None,z,z,,,,005,001,2024-11-20_23h38.38.797,Lexical Decision Making,2024.1.5,None,2024-11-20 23h38.54.671575 +0530,
a n g e r,1.0,negative,m,2,20,220,44,213.6871018999991,,,,,,,,,213.67185660000177,213.6871018999991,213.6871018999991,,214.53535460000057,m,0.837193200000911,None,m,m,,,,005,001,2024-11-20_23h38.38.797,Lexical Decision Making,2024.1.5,None,2024-11-20 23h38.54.671575 +0530,
q u i b l e n,0.0,non-word,z,2,21,221,91,214.55135090000113,,,,,,,,,214.53588690000106,214.55135090000113,214.55135090000113,215.565415699999,215.66601010000159,z,1.108846299997822,None,z,z,,,,005,001,2024-11-20_23h38.38.797,Lexical Decision Making,2024.1.5,None,2024-11-20 23h38.54.671575 +0530,
w i n d o w,1.0,neutral,m,2,22,222,68,215.68445599999905,,,,,,,,,215.66655309999987,215.68445599999905,215.68445599999905,,216.34723600000143,m,0.6463268000006792,None,m,m,,,,005,001,2024-11-20_23h38.38.797,Lexical Decision Making,2024.1.5,None,2024-11-20 23h38.54.671575 +0530,
p e n c i l,1.0,neutral,m,2,23,223,24,216.3629213000022,,,,,,,,,216.34777260000192,216.3629213000022,216.3629213000022,,217.19501339999988,m,0.8204733999991731,None,m,m,,,,005,001,2024-11-20_23h38.38.797,Lexical Decision Making,2024.1.5,None,2024-11-20 23h38.54.671575 +0530,
s m i l e,1.0,positive,m,2,24,224,55,217.2109528000001,,,,,,,,,217.19553970000197,217.2109528000001,217.2109528000001,,217.82648320000226,m,0.6041079000024183,None,m,m,,,,005,001,2024-11-20_23h38.38.797,Lexical Decision Making,2024.1.5,None,2024-11-20 23h38.54.671575 +0530,
f a i l u r e,1.0,negative,m,2,25,225,77,217.8419931999997,,,,,,,,,217.82705519999945,217.8419931999997,217.8419931999997,,218.2922374000009,m,0.44731809999939287,None,m,m,,,,005,001,2024-11-20_23h38.38.797,Lexical Decision Making,2024.1.5,None,2024-11-20 23h38.54.671575 +0530,
w a r,1.0,negative,m,2,26,226,67,218.30759849999959,,,,,,,,,218.29275710000002,218.30759849999959,218.30759849999959,,218.85759379999945,z,0.5424855999990541,None,z,m,,,,005,001,2024-11-20_23h38.38.797,Lexical Decision Making,2024.1.5,None,2024-11-20 23h38.54.671575 +0530,
v a b l i n,0.0,non-word,z,2,27,227,1,218.8726944000009,,,,,,,,,218.858121199999,218.8726944000009,218.8726944000009,,219.47178060000078,m,0.5853769999994256,None,m,z,,,,005,001,2024-11-20_23h38.38.797,Lexical Decision Making,2024.1.5,None,2024-11-20 23h38.54.671575 +0530,
f l o r t,0.0,non-word,z,2,28,228,11,219.48753969999962,,,,,,,,,219.4723163000017,219.48753969999962,219.48753969999962,220.50145239999983,220.50267929999973,z,1.0124084999988554,None,z,z,,,,005,001,2024-11-20_23h38.38.797,Lexical Decision Making,2024.1.5,None,2024-11-20 23h38.54.671575 +0530,
s m o r n,0.0,non-word,z,2,29,229,51,220.51804880000054,,,,,,,,,220.50323299999945,220.51804880000054,220.51804880000054,,221.18403000000035,z,0.6492657000017061,None,z,z,,,,005,001,2024-11-20_23h38.38.797,Lexical Decision Making,2024.1.5,None,2024-11-20 23h38.54.671575 +0530,
a n g e r,1.0,negative,m,2,30,230,15,221.19981140000164,,,,,,,,,221.1845749999993,221.19981140000164,221.19981140000164,,221.7989746000021,m,0.5966851000011957,None,m,m,,,,005,001,2024-11-20_23h38.38.797,Lexical Decision Making,2024.1.5,None,2024-11-20 23h38.54.671575 +0530,
g r i n d l e,0.0,non-word,z,2,31,231,54,221.81455880000067,,,,,,,,,221.79950820000158,221.81455880000067,221.81455880000067,,222.69690400000036,z,0.8812107000012475,None,z,z,,,,005,001,2024-11-20_23h38.38.797,Lexical Decision Making,2024.1.5,None,2024-11-20 23h38.54.671575 +0530,
p l a n e t,1.0,neutral,m,2,32,232,47,222.71203909999895,,,,,,,,,222.69745300000068,222.71203909999895,222.71203909999895,,223.67726269999912,m,0.95669529999941,None,m,m,,,,005,001,2024-11-20_23h38.38.797,Lexical Decision Making,2024.1.5,None,2024-11-20 23h38.54.671575 +0530,
p l a r k,0.0,non-word,z,2,33,233,45,223.69270310000138,,,,,,,,,223.67781910000122,223.69270310000138,223.69270310000138,,224.37546010000005,z,0.6701015999969968,None,z,z,,,,005,001,2024-11-20_23h38.38.797,Lexical Decision Making,2024.1.5,None,2024-11-20 23h38.54.671575 +0530,
c a l e n d a r,1.0,neutral,m,2,34,234,86,224.39077629999883,,,,,,,,,224.37601020000147,224.39077629999883,224.39077629999883,,225.22283830000015,m,0.8277793000015663,None,m,m,,,,005,001,2024-11-20_23h38.38.797,Lexical Decision Making,2024.1.5,None,2024-11-20 23h38.54.671575 +0530,
s o r r o w,1.0,negative,m,2,35,235,33,225.238825299999,,,,,,,,,225.2233735000009,225.238825299999,225.238825299999,,226.0705663000008,m,0.8151708999976108,None,m,m,,,,005,001,2024-11-20_23h38.38.797,Lexical Decision Making,2024.1.5,None,2024-11-20 23h38.54.671575 +0530,
l a m p,1.0,neutral,m,2,36,236,18,226.08632080000098,,,,,,,,,226.0711005000012,226.08632080000098,226.08632080000098,,226.93499000000156,m,0.8423812000000908,None,m,m,,,,005,001,2024-11-20_23h38.38.797,Lexical Decision Making,2024.1.5,None,2024-11-20 23h38.54.671575 +0530,
c h i n d l e,0.0,non-word,z,2,37,237,8,226.95071530000132,,,,,,,,,226.93552040000213,226.95071530000132,226.95071530000132,,227.66635959999985,z,0.7020548999971652,None,z,z,,,,005,001,2024-11-20_23h38.38.797,Lexical Decision Making,2024.1.5,None,2024-11-20 23h38.54.671575 +0530,
g l o r b y,0.0,non-word,z,2,38,238,28,227.68173620000016,,,,,,,,,227.66688870000144,227.68173620000016,227.68173620000016,,228.51404510000066,z,0.8279512999979488,None,z,z,,,,005,001,2024-11-20_23h38.38.797,Lexical Decision Making,2024.1.5,None,2024-11-20 23h38.54.671575 +0530,
s t o n e,1.0,neutral,m,2,39,239,13,228.52946470000097,,,,,,,,,228.51456880000114,228.52946470000097,228.52946470000097,,229.1462003000015,m,0.6033344999996189,None,m,m,,,,005,001,2024-11-20_23h38.38.797,Lexical Decision Making,2024.1.5,None,2024-11-20 23h38.54.671575 +0530,
p l o r,0.0,non-word,z,2,40,240,52,229.16111250000176,,,,,,,,,229.1467221999992,229.16111250000176,229.16111250000176,,229.79450749999887,z,0.6223422000002756,None,z,z,,,,005,001,2024-11-20_23h38.38.797,Lexical Decision Making,2024.1.5,None,2024-11-20 23h38.54.671575 +0530,
h o p e,1.0,positive,m,2,41,241,46,229.80923529999927,,,,,,,,,229.79504860000088,229.80923529999927,229.80923529999927,,230.308986,m,0.49672819999977946,None,m,m,,,,005,001,2024-11-20_23h38.38.797,Lexical Decision Making,2024.1.5,None,2024-11-20 23h38.54.671575 +0530,
s u c c e s s,1.0,positive,m,2,42,242,35,230.32461039999907,,,,,,,,,230.30951139999888,230.32461039999907,230.32461039999907,,230.87478109999938,m,0.5410198999998101,None,m,m,,,,005,001,2024-11-20_23h38.38.797,Lexical Decision Making,2024.1.5,None,2024-11-20 23h38.54.671575 +0530,
b r a s k,0.0,non-word,z,2,43,243,79,230.8897238999998,,,,,,,,,230.87530949999928,230.8897238999998,230.8897238999998,,231.45578680000108,z,0.5574859000007564,None,z,z,,,,005,001,2024-11-20_23h38.38.797,Lexical Decision Making,2024.1.5,None,2024-11-20 23h38.54.671575 +0530,
v i c t o r y,1.0,positive,m,2,44,244,25,231.47148260000176,,,,,,,,,231.45631370000046,231.47148260000176,231.47148260000176,,231.9879664,m,0.5102025999985926,None,m,m,,,,005,001,2024-11-20_23h38.38.797,Lexical Decision Making,2024.1.5,None,2024-11-20 23h38.54.671575 +0530,
c l o u d,1.0,neutral,m,2,45,245,94,232.00326119999954,,,,,,,,,231.98848650000218,232.00326119999954,232.00326119999954,,232.63589539999884,z,0.62834440000006,None,z,m,,,,005,001,2024-11-20_23h38.38.797,Lexical Decision Making,2024.1.5,None,2024-11-20 23h38.54.671575 +0530,
h a t e,1.0,negative,m,2,46,246,74,232.6516346999997,,,,,,,,,232.6364364000001,232.6516346999997,232.6516346999997,,233.2177942999988,m,0.564245800000208,None,m,m,,,,005,001,2024-11-20_23h38.38.797,Lexical Decision Making,2024.1.5,None,2024-11-20 23h38.54.671575 +0530,
d r o n t,0.0,non-word,z,2,47,247,95,233.23330669999996,,,,,,,,,233.21852919999947,233.23330669999996,233.23330669999996,234.24720480000178,234.28151179999986,z,1.0334631000005174,None,z,z,,,,005,001,2024-11-20_23h38.38.797,Lexical Decision Making,2024.1.5,None,2024-11-20 23h38.54.671575 +0530,
c r i o u s,0.0,non-word,z,2,48,248,99,234.29705390000163,,,,,,,,,234.28205209999942,234.29705390000163,234.29705390000163,,235.14588500000173,m,0.8424981000025582,None,m,z,,,,005,001,2024-11-20_23h38.38.797,Lexical Decision Making,2024.1.5,None,2024-11-20 23h38.54.671575 +0530,
e x c i t e d,1.0,positive,m,2,49,249,72,235.16139459999977,,,,,,,,,235.14644500000213,235.16139459999977,235.16139459999977,236.17512160000115,236.4092810000002,m,1.2465128999974695,None,m,m,,,,005,001,2024-11-20_23h38.38.797,Lexical Decision Making,2024.1.5,None,2024-11-20 23h38.54.671575 +0530,
d r e n k,0.0,non-word,z,2,50,250,4,236.4247237999989,,,,,,,,,236.40980499999932,236.4247237999989,236.4247237999989,,237.14040210000167,z,0.7040468999985023,None,z,z,,,,005,001,2024-11-20_23h38.38.797,Lexical Decision Making,2024.1.5,None,2024-11-20 23h38.54.671575 +0530,
v o b l i t,0.0,non-word,z,2,51,251,38,237.15615479999906,,,,,,,,,237.14094839999962,237.15615479999906,237.15615479999906,,237.97165189999942,z,0.8047291000002588,None,z,z,,,,005,001,2024-11-20_23h38.38.797,Lexical Decision Making,2024.1.5,None,2024-11-20 23h38.54.671575 +0530,
s a d n e s s,1.0,negative,m,2,52,252,88,237.9872316000001,,,,,,,,,237.97218749999956,237.9872316000001,237.9872316000001,,238.66958460000023,m,0.666808800000581,None,m,m,,,,005,001,2024-11-20_23h38.38.797,Lexical Decision Making,2024.1.5,None,2024-11-20 23h38.54.671575 +0530,
c o m f o r t,1.0,positive,m,2,53,253,59,238.68534340000042,,,,,,,,,238.6701107000008,238.68534340000042,238.68534340000042,,239.53375009999945,m,0.8336149999995541,None,m,m,,,,005,001,2024-11-20_23h38.38.797,Lexical Decision Making,2024.1.5,None,2024-11-20 23h38.54.671575 +0530,
m e t r o,1.0,neutral,m,2,54,254,96,239.54940440000064,,,,,,,,,239.534277499999,239.54940440000064,239.54940440000064,,240.24853300000177,m,0.6968305000009423,None,m,m,,,,005,001,2024-11-20_23h38.38.797,Lexical Decision Making,2024.1.5,None,2024-11-20 23h38.54.671575 +0530,
d e l i g h t,1.0,positive,m,2,55,255,39,240.26432059999934,,,,,,,,,240.24909950000074,240.26432059999934,240.26432059999934,,241.21257980000155,m,0.9392217000022356,None,m,m,,,,005,001,2024-11-20_23h38.38.797,Lexical Decision Making,2024.1.5,None,2024-11-20 23h38.54.671575 +0530,
c r y,1.0,negative,m,2,56,256,61,241.22811410000213,,,,,,,,,241.21311450000212,241.22811410000213,241.22811410000213,,241.8939207000003,m,0.6635212000001047,None,m,m,,,,005,001,2024-11-20_23h38.38.797,Lexical Decision Making,2024.1.5,None,2024-11-20 23h38.54.671575 +0530,
c l o c k,1.0,neutral,m,2,57,257,48,241.9097135000011,,,,,,,,,241.89451660000123,241.9097135000011,241.9097135000011,,242.5426862000022,m,0.6304223999977694,None,m,m,,,,005,001,2024-11-20_23h38.38.797,Lexical Decision Making,2024.1.5,None,2024-11-20 23h38.54.671575 +0530,
t w o r i k,0.0,non-word,z,2,58,258,93,242.55781389999902,,,,,,,,,242.5432191,242.55781389999902,242.55781389999902,,243.24017470000035,z,0.6708135999979277,None,z,z,,,,005,001,2024-11-20_23h38.38.797,Lexical Decision Making,2024.1.5,None,2024-11-20 23h38.54.671575 +0530,
c a b l e,1.0,neutral,m,2,59,259,78,243.25657069999943,,,,,,,,,243.24071270000059,243.25657069999943,243.25657069999943,244.26994149999882,244.48681950000173,m,1.2178067000022565,None,m,m,,,,005,001,2024-11-20_23h38.38.797,Lexical Decision Making,2024.1.5,None,2024-11-20 23h38.54.671575 +0530,
p l a r k,0.0,non-word,z,2,60,260,16,244.50310460000037,,,,,,,,,244.48736040000222,244.50310460000037,244.50310460000037,,245.0854939000019,m,0.5762433000018063,None,m,z,,,,005,001,2024-11-20_23h38.38.797,Lexical Decision Making,2024.1.5,None,2024-11-20 23h38.54.671575 +0530,
c l o c k,1.0,neutral,m,2,61,261,20,245.1008217000017,,,,,,,,,245.08640920000107,245.1008217000017,245.1008217000017,,245.6837575999998,z,0.5689982000003511,None,z,m,,,,005,001,2024-11-20_23h38.38.797,Lexical Decision Making,2024.1.5,None,2024-11-20 23h38.54.671575 +0530,
r e g r e t,1.0,negative,m,2,62,262,64,245.69925960000182,,,,,,,,,245.68430920000174,245.69925960000182,245.69925960000182,246.7130861000005,246.88067280000178,m,1.1726902999980666,None,m,m,,,,005,001,2024-11-20_23h38.38.797,Lexical Decision Making,2024.1.5,None,2024-11-20 23h38.54.671575 +0530,
p e n c i l,1.0,neutral,m,2,63,263,37,246.8959161999992,,,,,,,,,246.88121700000193,246.8959161999992,246.8959161999992,247.91001120000146,248.0935857000004,m,1.1856010000010428,None,m,m,,,,005,001,2024-11-20_23h38.38.797,Lexical Decision Making,2024.1.5,None,2024-11-20 23h38.54.671575 +0530,
g r a t i t u d e,1.0,positive,m,2,64,264,41,248.1093695999989,,,,,,,,,248.09413359999962,248.1093695999989,248.1093695999989,249.1232330999992,249.27367719999893,m,1.1621782000001986,None,m,m,,,,005,001,2024-11-20_23h38.38.797,Lexical Decision Making,2024.1.5,None,2024-11-20 23h38.54.671575 +0530,
f e a r f u l,1.0,negative,m,2,65,265,2,249.28942540000207,,,,,,,,,249.2742431000006,249.28942540000207,249.28942540000207,250.30328290000034,251.334978400002,m,2.0430876999998873,None,m,m,,,,005,001,2024-11-20_23h38.38.797,Lexical Decision Making,2024.1.5,None,2024-11-20 23h38.54.671575 +0530,
l a m p,1.0,neutral,m,2,66,266,42,251.35048140000072,,,,,,,,,251.3355147000002,251.35048140000072,251.35048140000072,252.36429789999966,253.1468984000021,m,1.7941993999993429,None,m,m,,,,005,001,2024-11-20_23h38.38.797,Lexical Decision Making,2024.1.5,None,2024-11-20 23h38.54.671575 +0530,
g r u f f i l,0.0,non-word,z,2,67,267,49,253.1621223000002,,,,,,,,,253.1474229000014,253.1621223000002,253.1621223000002,,253.77841160000025,z,0.6140580999999656,None,z,z,,,,005,001,2024-11-20_23h38.38.797,Lexical Decision Making,2024.1.5,None,2024-11-20 23h38.54.671575 +0530,
p e a c e,1.0,positive,m,2,68,268,97,253.79401670000152,,,,,,,,,253.77894269999888,253.79401670000152,253.79401670000152,254.80759910000052,256.3210868999995,m,2.512040599998727,None,m,m,,,,005,001,2024-11-20_23h38.38.797,Lexical Decision Making,2024.1.5,None,2024-11-20 23h38.54.671575 +0530,
g r i n d l e,0.0,non-word,z,2,69,269,3,256.3390650000001,,,,,,,,,256.3216214999993,256.3390650000001,256.3390650000001,257.351508300002,257.5345325999988,z,1.1939603999999235,None,z,z,,,,005,001,2024-11-20_23h38.38.797,Lexical Decision Making,2024.1.5,None,2024-11-20 23h38.54.671575 +0530,
l a w v e r,0.0,non-word,z,2,70,270,76,257.55058610000196,,,,,,,,,257.5350572999996,257.55058610000196,257.55058610000196,258.5640482000017,259.8618540999996,z,2.2964661000005435,None,z,z,,,,005,001,2024-11-20_23h38.38.797,Lexical Decision Making,2024.1.5,None,2024-11-20 23h38.54.671575 +0530,
g r i n d l e,0.0,non-word,z,2,71,271,17,259.8773535,,,,,,,,,259.8623769000005,259.8773535,259.8773535,260.89118729999973,261.0916203000015,z,1.2094336000009207,None,z,z,,,,005,001,2024-11-20_23h38.38.797,Lexical Decision Making,2024.1.5,None,2024-11-20 23h38.54.671575 +0530,
t r a g e d y,1.0,negative,m,2,72,272,70,261.10733990000153,,,,,,,,,261.09215179999956,261.10733990000153,261.10733990000153,,261.85642440000083,m,0.7337305000000924,None,m,m,,,,005,001,2024-11-20_23h38.38.797,Lexical Decision Making,2024.1.5,None,2024-11-20 23h38.54.671575 +0530,
c h e e r f u l,1.0,positive,m,2,73,273,43,261.87188909999895,,,,,,,,,261.8571797000004,261.87188909999895,261.87188909999895,262.8857801000013,262.8700557000011,m,0.9821583000011742,None,m,m,,,,005,001,2024-11-20_23h38.38.797,Lexical Decision Making,2024.1.5,None,2024-11-20 23h38.54.671575 +0530,
g r i e f,1.0,negative,m,2,74,274,81,262.8857801000013,,,,,,,,,262.8705867999997,262.8857801000013,262.8857801000013,263.8996651000016,263.9838184,m,1.095795499997621,None,m,m,,,,005,001,2024-11-20_23h38.38.797,Lexical Decision Making,2024.1.5,None,2024-11-20 23h38.54.671575 +0530,
b o t t l e,1.0,neutral,m,2,75,275,58,263.99928290000025,,,,,,,,,263.9843457999996,263.99928290000025,263.99928290000025,265.01322419999997,265.09736429999975,m,1.088262899997062,None,m,m,,,,005,001,2024-11-20_23h38.38.797,Lexical Decision Making,2024.1.5,None,2024-11-20 23h38.54.671575 +0530,
p e a c e,1.0,positive,m,2,76,276,89,265.1130907000006,,,,,,,,,265.0978877000016,265.1130907000006,265.1130907000006,,265.94502170000123,m,0.8275326000002678,None,m,m,,,,005,001,2024-11-20_23h38.38.797,Lexical Decision Making,2024.1.5,None,2024-11-20 23h38.54.671575 +0530,
j o y f u l,1.0,positive,m,2,77,277,19,265.9606970999994,,,,,,,,,265.9455593999992,265.9606970999994,265.9606970999994,,266.65995549999934,m,0.6958338000004005,None,m,m,,,,005,001,2024-11-20_23h38.38.797,Lexical Decision Making,2024.1.5,None,2024-11-20 23h38.54.671575 +0530,
d r e a m,1.0,positive,m,2,78,278,9,266.6752106000022,,,,,,,,,266.6604843999994,266.6752106000022,266.6752106000022,,267.6411552999998,m,0.9598226999987673,None,m,m,,,,005,001,2024-11-20_23h38.38.797,Lexical Decision Making,2024.1.5,None,2024-11-20 23h38.54.671575 +0530,
m i s e r y,1.0,negative,m,2,79,279,34,267.6561565000011,,,,,,,,,267.64170620000004,267.6561565000011,267.6561565000011,,268.4052202000021,m,0.7439080000003742,None,m,m,,,,005,001,2024-11-20_23h38.38.797,Lexical Decision Making,2024.1.5,None,2024-11-20 23h38.54.671575 +0530,
c a r p e t,1.0,neutral,m,2,80,280,85,268.4206603999992,,,,,,,,,268.4057948000009,268.4206603999992,268.4206603999992,269.43441390000226,269.9178251000012,m,1.4960903999999573,None,m,m,,,,005,001,2024-11-20_23h38.38.797,Lexical Decision Making,2024.1.5,None,2024-11-20 23h38.54.671575 +0530,
c e l e b r a t i o n,1.0,positive,m,2,81,281,75,269.9329699000009,,,,,,,,,269.9183704999996,269.9329699000009,269.9329699000009,270.94686410000213,271.5464213000014,m,1.6049438999980339,None,m,m,,,,005,001,2024-11-20_23h38.38.797,Lexical Decision Making,2024.1.5,None,2024-11-20 23h38.54.671575 +0530,
t r e n k,0.0,non-word,z,2,82,282,57,271.56266550000146,,,,,,,,,271.5469658000002,271.56266550000146,271.56266550000146,,272.3607379999994,z,0.7834881999988283,None,z,z,,,,005,001,2024-11-20_23h38.38.797,Lexical Decision Making,2024.1.5,None,2024-11-20 23h38.54.671575 +0530,
d r i n t,0.0,non-word,z,2,83,283,36,272.37641240000085,,,,,,,,,272.36128200000167,272.37641240000085,272.37641240000085,273.39015199999994,273.47483210000064,z,1.0887263999975403,None,z,z,,,,005,001,2024-11-20_23h38.38.797,Lexical Decision Making,2024.1.5,None,2024-11-20 23h38.54.671575 +0530,
s a d n e s s,1.0,negative,m,2,84,284,65,273.4901252999989,,,,,,,,,273.4753555999996,273.4901252999989,273.4901252999989,,274.3053712000001,m,0.8060770999982196,None,m,m,,,,005,001,2024-11-20_23h38.38.797,Lexical Decision Making,2024.1.5,None,2024-11-20 23h38.54.671575 +0530,
b o o k,1.0,neutral,m,2,85,285,22,274.3212564000023,,,,,,,,,274.30591320000167,274.3212564000023,274.3212564000023,275.33535029999985,275.41925940000147,m,1.0870868999991217,None,m,m,,,,005,001,2024-11-20_23h38.38.797,Lexical Decision Making,2024.1.5,None,2024-11-20 23h38.54.671575 +0530,
l o s s,1.0,negative,m,2,86,286,29,275.4347966999994,,,,,,,,,275.4198261999991,275.4347966999994,275.4347966999994,,276.1172585000022,m,0.6652364000001398,None,m,m,,,,005,001,2024-11-20_23h38.38.797,Lexical Decision Making,2024.1.5,None,2024-11-20 23h38.54.671575 +0530,
s m a g l e,0.0,non-word,z,2,87,287,53,276.13278450000143,,,,,,,,,276.11778799999956,276.13278450000143,276.13278450000143,,276.98178929999995,z,0.8454410999984248,None,z,z,,,,005,001,2024-11-20_23h38.38.797,Lexical Decision Making,2024.1.5,None,2024-11-20 23h38.54.671575 +0530,
t r a i n,1.0,neutral,m,2,88,288,40,276.99706890000016,,,,,,,,,276.98232149999967,276.99706890000016,276.99706890000016,,277.7959828000021,m,0.782280899999023,None,m,m,,,,005,001,2024-11-20_23h38.38.797,Lexical Decision Making,2024.1.5,None,2024-11-20 23h38.54.671575 +0530,
g r i e f,1.0,negative,m,2,89,289,62,277.81153180000183,,,,,,,,,277.7965179000021,277.81153180000183,277.81153180000183,,278.64352040000085,z,0.8216286000024411,None,z,m,,,,005,001,2024-11-20_23h38.38.797,Lexical Decision Making,2024.1.5,None,2024-11-20 23h38.54.671575 +0530,
s m i l e,1.0,positive,m,2,90,290,92,278.6591875000013,,,,,,,,,278.6440655000006,278.6591875000013,278.6591875000013,,279.3751742000022,m,0.710650799999712,None,m,m,,,,005,001,2024-11-20_23h38.38.797,Lexical Decision Making,2024.1.5,None,2024-11-20 23h38.54.671575 +0530,
b l o r p,0.0,non-word,z,2,91,291,5,279.39074189999883,,,,,,,,,279.3758983000007,279.39074189999883,279.39074189999883,,280.1563912999991,z,0.7560055000030843,None,z,z,,,,005,001,2024-11-20_23h38.38.797,Lexical Decision Making,2024.1.5,None,2024-11-20 23h38.54.671575 +0530,
z o m p r e,0.0,non-word,z,2,92,292,73,280.1717013000016,,,,,,,,,280.15691080000033,280.1717013000016,280.1717013000016,,280.80463529999906,m,0.6317137999976694,None,m,z,,,,005,001,2024-11-20_23h38.38.797,Lexical Decision Making,2024.1.5,None,2024-11-20 23h38.54.671575 +0530,
a c h i e v e m e n t,1.0,positive,m,2,93,293,27,280.8199738000003,,,,,,,,,280.8051693999987,280.8199738000003,280.8199738000003,,281.7022657999987,m,0.8810315000009723,None,m,m,,,,005,001,2024-11-20_23h38.38.797,Lexical Decision Making,2024.1.5,None,2024-11-20 23h38.54.671575 +0530,
a p p l e,1.0,neutral,m,2,94,294,32,281.7176599000013,,,,,,,,,281.70279220000157,281.7176599000013,281.7176599000013,,282.66592949999904,m,0.9344106999997166,None,m,m,,,,005,001,2024-11-20_23h38.38.797,Lexical Decision Making,2024.1.5,None,2024-11-20 23h38.54.671575 +0530,
k i n d n e s s,1.0,positive,m,2,95,295,82,282.681669900001,,,,,,,,,282.6664564999992,282.681669900001,282.681669900001,,283.62995330000194,m,0.9334613999999419,None,m,m,,,,005,001,2024-11-20_23h38.38.797,Lexical Decision Making,2024.1.5,None,2024-11-20 23h38.54.671575 +0530,
l o v e,1.0,positive,m,2,96,296,0,283.6456020000005,,,,,,,,,283.6304796000004,283.6456020000005,283.6456020000005,284.6595626999988,284.6773323999987,m,1.029640400000062,None,m,m,,,,005,001,2024-11-20_23h38.38.797,Lexical Decision Making,2024.1.5,None,2024-11-20 23h38.54.671575 +0530,
w i n d o w,1.0,neutral,m,2,97,297,80,284.69255129999874,,,,,,,,,284.6779673000019,284.69255129999874,284.69255129999874,,285.2422398999988,m,0.5475497000006726,None,m,m,,,,005,001,2024-11-20_23h38.38.797,Lexical Decision Making,2024.1.5,None,2024-11-20 23h38.54.671575 +0530,
t a b l e,1.0,neutral,m,2,98,298,6,285.25812280000173,,,,,,,,,285.24276960000134,285.25812280000173,285.25812280000173,,285.99032219999935,m,0.7282004000007873,None,m,m,,,,005,001,2024-11-20_23h38.38.797,Lexical Decision Making,2024.1.5,None,2024-11-20 23h38.54.671575 +0530,
e x c i t e d,1.0,positive,m,2,99,299,10,286.0059646000009,,,,,,,,,285.9908464,286.0059646000009,286.0059646000009,,286.52208090000204,m,0.5088660000001255,None,m,m,,,,005,001,2024-11-20_23h38.38.797,Lexical Decision Making,2024.1.5,None,2024-11-20 23h38.54.671575 +0530,
s m a g l e,0.0,non-word,z,3,0,300,53,286.53799250000156,,,,,,,,,286.5226121000014,286.53799250000156,286.53799250000156,,287.2698320999989,m,0.7238797999998496,None,m,z,,,,005,001,2024-11-20_23h38.38.797,Lexical Decision Making,2024.1.5,None,2024-11-20 23h38.54.671575 +0530,
b l o r p,0.0,non-word,z,3,1,301,60,287.28549380000186,,,,,,,,,287.2703978999998,287.28549380000186,287.28549380000186,,287.95138080000106,z,0.6544422999977542,None,z,z,,,,005,001,2024-11-20_23h38.38.797,Lexical Decision Making,2024.1.5,None,2024-11-20 23h38.54.671575 +0530,
f a i l u r e,1.0,negative,m,3,2,302,77,287.9672344999999,,,,,,,,,287.9518979000022,287.9672344999999,287.9672344999999,,288.7658150999996,m,0.7923569999984466,None,m,m,,,,005,001,2024-11-20_23h38.38.797,Lexical Decision Making,2024.1.5,None,2024-11-20 23h38.54.671575 +0530,
c r i t i c i s m,1.0,negative,m,3,3,303,26,288.7819101000023,,,,,,,,,288.7663442000012,288.7819101000023,288.7819101000023,,289.5164100000002,z,0.7158158999991429,None,z,m,,,,005,001,2024-11-20_23h38.38.797,Lexical Decision Making,2024.1.5,None,2024-11-20 23h38.54.671575 +0530,
c r i o u s,0.0,non-word,z,3,4,304,99,289.52963219999947,,,,,,,,,289.51714690000153,289.52963219999947,289.52963219999947,,290.1456747000011,m,0.6062710000005609,None,m,z,,,,005,001,2024-11-20_23h38.38.797,Lexical Decision Making,2024.1.5,None,2024-11-20 23h38.54.671575 +0530,
b l o r p,0.0,non-word,z,3,5,305,5,290.1610572999998,,,,,,,,,290.1462532000005,290.1610572999998,290.1610572999998,,291.04360010000164,z,0.8730422999979055,None,z,z,,,,005,001,2024-11-20_23h38.38.797,Lexical Decision Making,2024.1.5,None,2024-11-20 23h38.54.671575 +0530,
m u r k l e,0.0,non-word,z,3,6,306,66,291.0585768000019,,,,,,,,,291.04412199999933,291.0585768000019,291.0585768000019,,291.6579358000017,z,0.5911293999997724,None,z,z,,,,005,001,2024-11-20_23h38.38.797,Lexical Decision Making,2024.1.5,None,2024-11-20 23h38.54.671575 +0530,
f e a r f u l,1.0,negative,m,3,7,307,2,291.6736256000004,,,,,,,,,291.65859400000045,291.6736256000004,291.6736256000004,,292.38947420000113,m,0.7134485999995377,None,m,m,,,,005,001,2024-11-20_23h38.38.797,Lexical Decision Making,2024.1.5,None,2024-11-20 23h38.54.671575 +0530,
p e n c i l,1.0,neutral,m,3,8,308,37,292.4049500000001,,,,,,,,,292.39000360000136,292.4049500000001,292.4049500000001,,293.35331700000097,m,0.9368047999996634,None,m,m,,,,005,001,2024-11-20_23h38.38.797,Lexical Decision Making,2024.1.5,None,2024-11-20 23h38.54.671575 +0530,
p e a c e,1.0,positive,m,3,9,309,89,293.369182800001,,,,,,,,,293.3539232000003,293.369182800001,293.369182800001,,294.0018874999987,m,0.6296410999966611,None,m,m,,,,005,001,2024-11-20_23h38.38.797,Lexical Decision Making,2024.1.5,None,2024-11-20 23h38.54.671575 +0530,
l o s s,1.0,negative,m,3,10,310,29,294.0171651000019,,,,,,,,,294.0024570000023,294.0171651000019,294.0171651000019,,294.6835229999997,m,0.6563738999975612,None,m,m,,,,005,001,2024-11-20_23h38.38.797,Lexical Decision Making,2024.1.5,None,2024-11-20 23h38.54.671575 +0530,
s w o r p y,0.0,non-word,z,3,11,311,69,294.6988289000001,,,,,,,,,294.68414440000197,294.6988289000001,294.6988289000001,,295.28153459999885,z,0.5779860000002373,None,z,z,,,,005,001,2024-11-20_23h38.38.797,Lexical Decision Making,2024.1.5,None,2024-11-20 23h38.54.671575 +0530,
c h a i r,1.0,neutral,m,3,12,312,7,295.29728030000115,,,,,,,,,295.2820592999997,295.29728030000115,295.29728030000115,,295.99660810000205,m,0.6956547000008868,None,m,m,,,,005,001,2024-11-20_23h38.38.797,Lexical Decision Making,2024.1.5,None,2024-11-20 23h38.54.671575 +0530,
l a w v e r,0.0,non-word,z,3,13,313,76,296.0116772000001,,,,,,,,,295.9971321000012,296.0116772000001,296.0116772000001,,296.79402219999974,z,0.7729906000022311,None,z,z,,,,005,001,2024-11-20_23h38.38.797,Lexical Decision Making,2024.1.5,None,2024-11-20 23h38.54.671575 +0530,
d r i n t,0.0,non-word,z,3,14,314,36,296.8095500999989,,,,,,,,,296.79454220000116,296.8095500999989,296.8095500999989,,297.5587685999999,z,0.7358301000022038,None,z,z,,,,005,001,2024-11-20_23h38.38.797,Lexical Decision Making,2024.1.5,None,2024-11-20 23h38.54.671575 +0530,
p l a r k,0.0,non-word,z,3,15,315,45,297.5743401,,,,,,,,,297.5593015000013,297.5743401,297.5743401,,298.2902931999997,z,0.7038296999999147,None,z,z,,,,005,001,2024-11-20_23h38.38.797,Lexical Decision Making,2024.1.5,None,2024-11-20 23h38.54.671575 +0530,
g r i n d l e,0.0,non-word,z,3,16,316,54,298.3054830000001,,,,,,,,,298.2910063999989,298.3054830000001,298.3054830000001,,298.8386197,m,0.5272030000014638,None,m,z,,,,005,001,2024-11-20_23h38.38.797,Lexical Decision Making,2024.1.5,None,2024-11-20 23h38.54.671575 +0530,
g r i n d l e,0.0,non-word,z,3,17,317,17,298.85417900000175,,,,,,,,,298.83914840000216,298.85417900000175,298.85417900000175,299.8678734000023,300.53378879999946,m,1.6781800000026124,None,m,z,,,,005,001,2024-11-20_23h38.38.797,Lexical Decision Making,2024.1.5,None,2024-11-20 23h38.54.671575 +0530,
d r i n t,0.0,non-word,z,3,18,318,23,300.549551600001,,,,,,,,,300.5343087000001,300.549551600001,300.549551600001,,301.2982286000006,z,0.7333222999986901,None,z,z,,,,005,001,2024-11-20_23h38.38.797,Lexical Decision Making,2024.1.5,None,2024-11-20 23h38.54.671575 +0530,
g r i e f,1.0,negative,m,3,19,319,50,301.3139024000011,,,,,,,,,301.29877730000226,301.3139024000011,301.3139024000011,302.3280631999987,303.54290910000054,m,2.226566499997716,None,m,m,,,,005,001,2024-11-20_23h38.38.797,Lexical Decision Making,2024.1.5,None,2024-11-20 23h38.54.671575 +0530,
s m o r n,0.0,non-word,z,3,20,320,14,303.5577861999991,,,,,,,,,303.5435049000007,303.5577861999991,303.5577861999991,304.5716958000012,305.23772689999896,z,1.6753519000012602,None,z,z,,,,005,001,2024-11-20_23h38.38.797,Lexical Decision Making,2024.1.5,None,2024-11-20 23h38.54.671575 +0530,
l a m p,1.0,neutral,m,3,21,321,18,305.25321859999895,,,,,,,,,305.23824570000215,305.25321859999895,305.25321859999895,306.2672609000001,306.76656300000104,m,1.500101800000266,None,m,m,,,,005,001,2024-11-20_23h38.38.797,Lexical Decision Making,2024.1.5,None,2024-11-20 23h38.54.671575 +0530,
g r u f f i l,0.0,non-word,z,3,22,322,49,306.78244389999963,,,,,,,,,306.76708789999975,306.78244389999963,306.78244389999963,,307.56467129999874,z,0.7677801999998337,None,z,z,,,,005,001,2024-11-20_23h38.38.797,Lexical Decision Making,2024.1.5,None,2024-11-20 23h38.54.671575 +0530,
c h i n d l e,0.0,non-word,z,3,23,323,8,307.58031850000043,,,,,,,,,307.56519219999973,307.58031850000043,307.58031850000043,,308.56210680000004,z,0.976213000001735,None,z,z,,,,005,001,2024-11-20_23h38.38.797,Lexical Decision Making,2024.1.5,None,2024-11-20 23h38.54.671575 +0530,
g r i e f,1.0,negative,m,3,24,324,81,308.57741030000034,,,,,,,,,308.56263970000145,308.57741030000034,308.57741030000034,,309.21000880000065,m,0.6157003000007535,None,m,m,,,,005,001,2024-11-20_23h38.38.797,Lexical Decision Making,2024.1.5,None,2024-11-20 23h38.54.671575 +0530,
t r a i n,1.0,neutral,m,3,25,325,40,309.2256379999999,,,,,,,,,309.2105392000012,309.2256379999999,309.2256379999999,,309.9915485999991,m,0.7634599000011804,None,m,m,,,,005,001,2024-11-20_23h38.38.797,Lexical Decision Making,2024.1.5,None,2024-11-20 23h38.54.671575 +0530,
r e g r e t,1.0,negative,m,3,26,326,64,310.00679540000056,,,,,,,,,309.9920783999987,310.00679540000056,310.00679540000056,,310.8224431000017,m,0.8037411000004795,None,m,m,,,,005,001,2024-11-20_23h38.38.797,Lexical Decision Making,2024.1.5,None,2024-11-20 23h38.54.671575 +0530,
c r y,1.0,negative,m,3,27,327,61,310.83800580000025,,,,,,,,,310.82296309999947,310.83800580000025,310.83800580000025,311.8516563000012,312.43447730000116,m,1.5885860999987926,None,m,m,,,,005,001,2024-11-20_23h38.38.797,Lexical Decision Making,2024.1.5,None,2024-11-20 23h38.54.671575 +0530,
w i n d o w,1.0,neutral,m,3,28,328,80,312.45012000000133,,,,,,,,,312.4351432000003,312.45012000000133,312.45012000000133,,313.06616589999976,m,0.6120049999990442,None,m,m,,,,005,001,2024-11-20_23h38.38.797,Lexical Decision Making,2024.1.5,None,2024-11-20 23h38.54.671575 +0530,
s m i l e,1.0,positive,m,3,29,329,92,313.08179089999976,,,,,,,,,313.06668120000177,313.08179089999976,313.08179089999976,314.0956169000019,314.13067669999873,m,1.0478258000002825,None,m,m,,,,005,001,2024-11-20_23h38.38.797,Lexical Decision Making,2024.1.5,None,2024-11-20 23h38.54.671575 +0530,
z o m p r e,0.0,non-word,z,3,30,330,73,314.1454980999988,,,,,,,,,314.1312046000021,314.1454980999988,314.1454980999988,,314.8281281000018,z,0.6655924000006053,None,z,z,,,,005,001,2024-11-20_23h38.38.797,Lexical Decision Making,2024.1.5,None,2024-11-20 23h38.54.671575 +0530,
h a p p y,1.0,positive,m,3,31,331,21,314.84349949999887,,,,,,,,,314.8286533999999,314.84349949999887,314.84349949999887,315.85751900000105,316.7232029000006,m,1.8720439999997325,None,m,m,,,,005,001,2024-11-20_23h38.38.797,Lexical Decision Making,2024.1.5,None,2024-11-20 23h38.54.671575 +0530,
d r e a m,1.0,positive,m,3,32,332,9,316.7383479000018,,,,,,,,,316.72385829999985,316.7383479000018,316.7383479000018,317.75273469999956,318.1190210999994,m,1.3743195999995805,None,m,m,,,,005,001,2024-11-20_23h38.38.797,Lexical Decision Making,2024.1.5,None,2024-11-20 23h38.54.671575 +0530,
c e l e b r a t i o n,1.0,positive,m,3,33,333,75,318.1345230000006,,,,,,,,,318.119550899999,318.1345230000006,318.1345230000006,,318.7684929999996,m,0.6245184999970661,None,m,m,,,,005,001,2024-11-20_23h38.38.797,Lexical Decision Making,2024.1.5,None,2024-11-20 23h38.54.671575 +0530,
d e s p a i r,1.0,negative,m,3,34,334,56,318.78277030000027,,,,,,,,,318.76902379999956,318.78277030000027,318.78277030000027,,319.3992134,m,0.6022950000005949,None,m,m,,,,005,001,2024-11-20_23h38.38.797,Lexical Decision Making,2024.1.5,None,2024-11-20 23h38.54.671575 +0530,
w i n d o w,1.0,neutral,m,3,35,335,68,319.41457509999964,,,,,,,,,319.3997442,319.41457509999964,319.41457509999964,,319.91516910000064,m,0.4933165000002191,None,m,m,,,,005,001,2024-11-20_23h38.38.797,Lexical Decision Making,2024.1.5,None,2024-11-20 23h38.54.671575 +0530,
s m o r n,0.0,non-word,z,3,36,336,51,319.92959540000084,,,,,,,,,319.9158002000004,319.92959540000084,319.92959540000084,,320.69536399999924,z,0.7554329999984475,None,z,z,,,,005,001,2024-11-20_23h38.38.797,Lexical Decision Making,2024.1.5,None,2024-11-20 23h38.54.671575 +0530,
s a d,1.0,negative,m,3,37,337,87,320.7149415999993,,,,,,,,,320.6958912000009,320.7149415999993,320.7149415999993,,321.6263323000021,m,0.903326299998298,None,m,m,,,,005,001,2024-11-20_23h38.38.797,Lexical Decision Making,2024.1.5,None,2024-11-20 23h38.54.671575 +0530,
b l o r p,0.0,non-word,z,3,38,338,84,321.64264080000066,,,,,,,,,321.62687129999904,321.64264080000066,321.64264080000066,,322.341047599999,z,0.683379000001878,None,z,z,,,,005,001,2024-11-20_23h38.38.797,Lexical Decision Making,2024.1.5,None,2024-11-20 23h38.54.671575 +0530,
h o p e,1.0,positive,m,3,39,339,46,322.3566357000018,,,,,,,,,322.3415778999988,322.3566357000018,322.3566357000018,,323.1221399999995,m,0.7564910000000964,None,m,m,,,,005,001,2024-11-20_23h38.38.797,Lexical Decision Making,2024.1.5,None,2024-11-20 23h38.54.671575 +0530,
g r i e f,1.0,negative,m,3,40,340,62,323.13768060000075,,,,,,,,,323.1226635000021,323.13768060000075,323.13768060000075,,323.7876357999994,m,0.6451727000021492,None,m,m,,,,005,001,2024-11-20_23h38.38.797,Lexical Decision Making,2024.1.5,None,2024-11-20 23h38.54.671575 +0530,
c a b l e,1.0,neutral,m,3,41,341,78,323.80267580000145,,,,,,,,,323.78817400000116,323.80267580000145,323.80267580000145,,324.5680749999992,m,0.750280100000964,None,m,m,,,,005,001,2024-11-20_23h38.38.797,Lexical Decision Making,2024.1.5,None,2024-11-20 23h38.54.671575 +0530,
m i s e r y,1.0,negative,m,3,42,342,34,324.58389159999933,,,,,,,,,324.56870250000065,324.58389159999933,324.58389159999933,,325.19959559999916,m,0.610771299998305,None,m,m,,,,005,001,2024-11-20_23h38.38.797,Lexical Decision Making,2024.1.5,None,2024-11-20 23h38.54.671575 +0530,
p l o r,0.0,non-word,z,3,43,343,52,325.2151988000005,,,,,,,,,325.2001261000005,325.2151988000005,325.2151988000005,,325.86464949999936,z,0.6482273000001442,None,z,z,,,,005,001,2024-11-20_23h38.38.797,Lexical Decision Making,2024.1.5,None,2024-11-20 23h38.54.671575 +0530,
z a r f e t,0.0,non-word,z,3,44,344,31,325.88011259999985,,,,,,,,,325.8651893999995,325.88011259999985,325.88011259999985,,326.51280899999983,z,0.6259868999986793,None,z,z,,,,005,001,2024-11-20_23h38.38.797,Lexical Decision Making,2024.1.5,None,2024-11-20 23h38.54.671575 +0530,
c a l e n d a r,1.0,neutral,m,3,45,345,86,326.5286261000001,,,,,,,,,326.51332900000125,326.5286261000001,326.5286261000001,,327.0948657000008,m,0.5628544000028342,None,m,m,,,,005,001,2024-11-20_23h38.38.797,Lexical Decision Making,2024.1.5,None,2024-11-20 23h38.54.671575 +0530,
b r a s k,0.0,non-word,z,3,46,346,79,327.110024900001,,,,,,,,,327.0953847000019,327.110024900001,327.110024900001,,327.74383130000206,z,0.6271962999999232,None,z,z,,,,005,001,2024-11-20_23h38.38.797,Lexical Decision Making,2024.1.5,None,2024-11-20 23h38.54.671575 +0530,
c l o c k,1.0,neutral,m,3,47,347,20,327.75828340000226,,,,,,,,,327.7443497000022,327.75828340000226,327.75828340000226,,328.3747499000019,m,0.6088380000001052,None,m,m,,,,005,001,2024-11-20_23h38.38.797,Lexical Decision Making,2024.1.5,None,2024-11-20 23h38.54.671575 +0530,
e x c i t e d,1.0,positive,m,3,48,348,10,328.3903035000003,,,,,,,,,328.3754622000015,328.3903035000003,328.3903035000003,,329.10581960000127,m,0.7127877999992052,None,m,m,,,,005,001,2024-11-20_23h38.38.797,Lexical Decision Making,2024.1.5,None,2024-11-20 23h38.54.671575 +0530,
a p p l e,1.0,neutral,m,3,49,349,32,329.12144360000093,,,,,,,,,329.10633640000015,329.12144360000093,329.12144360000093,,329.7044711000017,m,0.5806164999994508,None,m,m,,,,005,001,2024-11-20_23h38.38.797,Lexical Decision Making,2024.1.5,None,2024-11-20 23h38.54.671575 +0530,
h a t e,1.0,negative,m,3,50,350,74,329.71964930000104,,,,,,,,,329.70499740000014,329.71964930000104,329.71964930000104,,330.302392900001,m,0.5757279999997991,None,m,m,,,,005,001,2024-11-20_23h38.38.797,Lexical Decision Making,2024.1.5,None,2024-11-20 23h38.54.671575 +0530,
f l o r t,0.0,non-word,z,3,51,351,11,330.3180112000009,,,,,,,,,330.3029214999988,330.3180112000009,330.3180112000009,,330.95046840000214,z,0.6277618999993138,None,z,z,,,,005,001,2024-11-20_23h38.38.797,Lexical Decision Making,2024.1.5,None,2024-11-20 23h38.54.671575 +0530,
t w o r i k,0.0,non-word,z,3,52,352,93,330.96699609999996,,,,,,,,,330.950998100001,330.96699609999996,330.96699609999996,,331.6487683000014,z,0.6648228999983985,None,z,z,,,,005,001,2024-11-20_23h38.38.797,Lexical Decision Making,2024.1.5,None,2024-11-20 23h38.54.671575 +0530,
s a d n e s s,1.0,negative,m,3,53,353,88,331.66438389999894,,,,,,,,,331.6493741000013,331.66438389999894,331.66438389999894,,332.33037010000044,m,0.6557376999990083,None,m,m,,,,005,001,2024-11-20_23h38.38.797,Lexical Decision Making,2024.1.5,None,2024-11-20 23h38.54.671575 +0530,
