Stimulus,IsWord,Valence,CorrectResponse,trials.thisRepN,trials.thisTrialN,trials.thisN,trials.thisIndex,thisRow.t,notes,instructions.started,instructionsText.started,key_resp_2.started,instructions.stopped,key_resp_2.keys,key_resp_2.rt,key_resp_2.duration,trial.started,text.started,key_resp.started,text.stopped,trial.stopped,key_resp.keys,key_resp.rt,key_resp.duration,ParticipantResponse,CorrectResponse,End.started,text_z.started,End.stopped,participant,session,date,expName,psychopyVersion,frameRate,expStart,
,,,,,,,,,,0.012538800001493655,0.02847710000060033,0.02847710000060033,33.08079820000057,space,32.92336459999933,None,,,,,,,,,,,,,,010,001,2024-11-23_18h21.33.983,Lexical Decision Making,2024.1.5,None,2024-11-23 18h21.50.495612 +0530,
s m i l e,1.0,positive,m,0,0,0,92,33.13817610000115,,,,,,,,,33.12184160000106,33.13817610000115,33.13817610000115,33.653426200002286,35.484111000001576,m,2.3366217000002507,None,m,m,,,,010,001,2024-11-23_18h21.33.983,Lexical Decision Making,2024.1.5,None,2024-11-23 18h21.50.495612 +0530,
d e l i g h t,1.0,positive,m,0,1,1,39,35.51513370000248,,,,,,,,,35.48738850000154,35.51513370000248,35.51513370000248,36.0304692000027,36.66321860000244,m,1.134759299999132,None,m,m,,,,010,001,2024-11-23_18h21.33.983,Lexical Decision Making,2024.1.5,None,2024-11-23 18h21.50.495612 +0530,
f e a r f u l,1.0,negative,m,0,2,2,2,36.678481900002225,,,,,,,,,36.66420149999976,36.678481900002225,36.678481900002225,37.17784540000139,37.698083499999484,m,1.0037026999998488,None,m,m,,,,010,001,2024-11-23_18h21.33.983,Lexical Decision Making,2024.1.5,None,2024-11-23 18h21.50.495612 +0530,
s o r r o w,1.0,negative,m,0,3,3,33,37.72554020000098,,,,,,,,,37.699284700000135,37.72554020000098,37.72554020000098,38.24092770000061,39.52213240000128,m,1.7830211999971652,None,m,m,,,,010,001,2024-11-23_18h21.33.983,Lexical Decision Making,2024.1.5,None,2024-11-23 18h21.50.495612 +0530,
w a r,1.0,negative,m,0,4,4,67,39.537663000002794,,,,,,,,,39.523268000000826,39.537663000002794,39.537663000002794,40.05242940000244,41.64954990000115,m,2.1024985000003653,None,m,m,,,,010,001,2024-11-23_18h21.33.983,Lexical Decision Making,2024.1.5,None,2024-11-23 18h21.50.495612 +0530,
p l a r k,0.0,non-word,z,0,5,5,45,41.66477339999983,,,,,,,,,41.6504969000016,41.66477339999983,41.66477339999983,42.18025040000066,49.57825100000264,z,7.898919700000988,None,z,z,,,,010,001,2024-11-23_18h21.33.983,Lexical Decision Making,2024.1.5,None,2024-11-23 18h21.50.495612 +0530,
g r i n d l e,0.0,non-word,z,0,6,6,17,49.593418700002076,,,,,,,,,49.57917770000131,49.593418700002076,49.593418700002076,50.108282600001985,61.263272700001835,z,11.660010600000533,None,z,z,,,,010,001,2024-11-23_18h21.33.983,Lexical Decision Making,2024.1.5,None,2024-11-23 18h21.50.495612 +0530,
e x c i t e d,1.0,positive,m,0,7,7,10,61.277999400001136,,,,,,,,,61.2642001000022,61.277999400001136,61.277999400001136,61.79340840000077,62.02748040000006,m,0.7426096000017424,None,m,m,,,,010,001,2024-11-23_18h21.33.983,Lexical Decision Making,2024.1.5,None,2024-11-23 18h21.50.495612 +0530,
p l o r,0.0,non-word,z,0,8,8,52,62.04237450000073,,,,,,,,,62.02840020000076,62.04237450000073,62.04237450000073,62.557620999999926,62.89189940000142,z,0.8471043999998074,None,z,z,,,,010,001,2024-11-23_18h21.33.983,Lexical Decision Making,2024.1.5,None,2024-11-23 18h21.50.495612 +0530,
s t o n e,1.0,neutral,m,0,9,9,13,62.907016200002545,,,,,,,,,62.892813900001784,62.907016200002545,62.907016200002545,63.42189860000144,63.40783510000256,m,0.4961512000008952,None,m,m,,,,010,001,2024-11-23_18h21.33.983,Lexical Decision Making,2024.1.5,None,2024-11-23 18h21.50.495612 +0530,
l o s s,1.0,negative,m,0,10,10,29,63.42189860000144,,,,,,,,,63.40875130000131,63.42189860000144,63.42189860000144,63.937262600000395,64.38786310000069,m,0.9504320000014559,None,m,m,,,,010,001,2024-11-23_18h21.33.983,Lexical Decision Making,2024.1.5,None,2024-11-23 18h21.50.495612 +0530,
c h e e r,1.0,positive,m,0,11,11,63,64.40266630000042,,,,,,,,,64.38901840000108,64.40266630000042,64.40266630000042,64.9179088000019,65.06917339999927,m,0.6580813000000489,None,m,m,,,,010,001,2024-11-23_18h21.33.983,Lexical Decision Making,2024.1.5,None,2024-11-23 18h21.50.495612 +0530,
s m i l e,1.0,positive,m,0,12,12,55,65.08411720000004,,,,,,,,,65.07016210000074,65.08411720000004,65.08411720000004,65.59943280000152,65.71751679999943,m,0.6314961000025505,None,m,m,,,,010,001,2024-11-23_18h21.33.983,Lexical Decision Making,2024.1.5,None,2024-11-23 18h21.50.495612 +0530,
s u c c e s s,1.0,positive,m,0,13,13,35,65.73213980000219,,,,,,,,,65.71856720000142,65.73213980000219,65.73213980000219,66.24765180000031,66.36569539999982,m,0.6196331999999529,None,m,m,,,,010,001,2024-11-23_18h21.33.983,Lexical Decision Making,2024.1.5,None,2024-11-23 18h21.50.495612 +0530,
h o p e,1.0,positive,m,0,14,14,46,66.38045989999955,,,,,,,,,66.36671440000282,66.38045989999955,66.38045989999955,66.89600580000115,66.98072080000202,m,0.5896218999987468,None,m,m,,,,010,001,2024-11-23_18h21.33.983,Lexical Decision Making,2024.1.5,None,2024-11-23 18h21.50.495612 +0530,
s w o r p y,0.0,non-word,z,0,15,15,69,66.99567770000067,,,,,,,,,66.98162280000179,66.99567770000067,66.99567770000067,67.51078690000213,68.21398039999985,m,1.2118391000003612,None,m,z,,,,010,001,2024-11-23_18h21.33.983,Lexical Decision Making,2024.1.5,None,2024-11-23 18h21.50.495612 +0530,
c a r p e t,1.0,neutral,m,0,16,16,85,68.24207709999973,,,,,,,,,68.21531270000196,68.24207709999973,68.24207709999973,68.75739420000173,68.85876030000145,m,0.6038189999999304,None,m,m,,,,010,001,2024-11-23_18h21.33.983,Lexical Decision Making,2024.1.5,None,2024-11-23 18h21.50.495612 +0530,
l a m p,1.0,neutral,m,0,17,17,18,68.87382849999995,,,,,,,,,68.85973390000072,68.87382849999995,68.87382849999995,69.38940720000028,69.47399779999978,m,0.5866697000019485,None,m,m,,,,010,001,2024-11-23_18h21.33.983,Lexical Decision Making,2024.1.5,None,2024-11-23 18h21.50.495612 +0530,
c e l e b r a t i o n,1.0,positive,m,0,18,18,75,69.48872929999925,,,,,,,,,69.4749167000009,69.48872929999925,69.48872929999925,70.00398590000259,70.15530690000014,m,0.6497115999991365,None,m,m,,,,010,001,2024-11-23_18h21.33.983,Lexical Decision Making,2024.1.5,None,2024-11-23 18h21.50.495612 +0530,
g r i e f,1.0,negative,m,0,19,19,62,70.17025450000074,,,,,,,,,70.15637760000027,70.17025450000074,70.17025450000074,70.68555750000087,70.68706340000062,m,0.5078023999994912,None,m,m,,,,010,001,2024-11-23_18h21.33.983,Lexical Decision Making,2024.1.5,None,2024-11-23 18h21.50.495612 +0530,
b o o k,1.0,neutral,m,0,20,20,22,70.70210539999971,,,,,,,,,70.68811360000109,70.70210539999971,70.70210539999971,71.21733320000203,71.20244509999975,m,0.49714940000194474,None,m,m,,,,010,001,2024-11-23_18h21.33.983,Lexical Decision Making,2024.1.5,None,2024-11-23 18h21.50.495612 +0530,
p e a c e,1.0,positive,m,0,21,21,97,71.21733320000203,,,,,,,,,71.20353050000267,71.21733320000203,71.21733320000203,71.73251030000029,71.71792890000143,m,0.4864452999972855,None,m,m,,,,010,001,2024-11-23_18h21.33.983,Lexical Decision Making,2024.1.5,None,2024-11-23 18h21.50.495612 +0530,
c r i o u s,0.0,non-word,z,0,22,22,99,71.73251030000029,,,,,,,,,71.71885200000179,71.73251030000029,71.73251030000029,72.2478652000027,72.34941030000118,m,0.6121718000031251,None,m,z,,,,010,001,2024-11-23_18h21.33.983,Lexical Decision Making,2024.1.5,None,2024-11-23 18h21.50.495612 +0530,
c o m f o r t,1.0,positive,m,0,23,23,59,72.36418380000032,,,,,,,,,72.35041620000266,72.36418380000032,72.36418380000032,72.87955090000105,73.56285290000233,m,1.1953627000002598,None,m,m,,,,010,001,2024-11-23_18h21.33.983,Lexical Decision Making,2024.1.5,None,2024-11-23 18h21.50.495612 +0530,
p l a r k,0.0,non-word,z,0,24,24,16,73.5776618000018,,,,,,,,,73.56389760000093,73.5776618000018,73.5776618000018,74.09286280000015,75.27465980000125,z,1.687913000001572,None,z,z,,,,010,001,2024-11-23_18h21.33.983,Lexical Decision Making,2024.1.5,None,2024-11-23 18h21.50.495612 +0530,
w i n d o w,1.0,neutral,m,0,25,25,80,75.28967700000067,,,,,,,,,75.27555190000203,75.28967700000067,75.28967700000067,75.8048576000001,75.80623790000027,m,0.49967889999970794,None,m,m,,,,010,001,2024-11-23_18h21.33.983,Lexical Decision Making,2024.1.5,None,2024-11-23 18h21.50.495612 +0530,
d r i n t,0.0,non-word,z,0,26,26,36,75.8214697000003,,,,,,,,,75.80714910000097,75.8214697000003,75.8214697000003,76.33687310000096,76.48813639999935,m,0.6555196000008436,None,m,z,,,,010,001,2024-11-23_18h21.33.983,Lexical Decision Making,2024.1.5,None,2024-11-23 18h21.50.495612 +0530,
b l o r p,0.0,non-word,z,0,27,27,5,76.50285480000093,,,,,,,,,76.48903260000225,76.50285480000093,76.50285480000093,77.01821950000158,77.65136390000043,z,1.1441589999994903,None,z,z,,,,010,001,2024-11-23_18h21.33.983,Lexical Decision Making,2024.1.5,None,2024-11-23 18h21.50.495612 +0530,
s m a g l e,0.0,non-word,z,0,28,28,53,77.66663420000259,,,,,,,,,77.65238350000072,77.66663420000259,77.66663420000259,78.1819319999995,78.53241740000158,z,0.8515092999987246,None,z,z,,,,010,001,2024-11-23_18h21.33.983,Lexical Decision Making,2024.1.5,None,2024-11-23 18h21.50.495612 +0530,
v i c t o r y,1.0,positive,m,0,29,29,25,78.5640201999995,,,,,,,,,78.53331099999923,78.5640201999995,78.5640201999995,79.0794034999999,79.06494030000249,m,0.4856404999991355,None,m,m,,,,010,001,2024-11-23_18h21.33.983,Lexical Decision Making,2024.1.5,None,2024-11-23 18h21.50.495612 +0530,
p e a c e,1.0,positive,m,0,30,30,89,79.0794034999999,,,,,,,,,79.0658829999993,79.0794034999999,79.0794034999999,79.59453890000077,79.66277940000145,m,0.5792814000014914,None,m,m,,,,010,001,2024-11-23_18h21.33.983,Lexical Decision Making,2024.1.5,None,2024-11-23 18h21.50.495612 +0530,
k i n d n e s s,1.0,positive,m,0,31,31,82,79.67767370000001,,,,,,,,,79.66380180000124,79.67767370000001,79.67767370000001,80.19287769999937,80.26157439999952,m,0.5817669999996724,None,m,m,,,,010,001,2024-11-23_18h21.33.983,Lexical Decision Making,2024.1.5,None,2024-11-23 18h21.50.495612 +0530,
p a i n,1.0,negative,m,0,32,32,83,80.27605680000124,,,,,,,,,80.26248810000106,80.27605680000124,80.27605680000124,80.79113830000279,80.77621320000253,m,0.49559019999651355,None,m,m,,,,010,001,2024-11-23_18h21.33.983,Lexical Decision Making,2024.1.5,None,2024-11-23 18h21.50.495612 +0530,
g r i e f,1.0,negative,m,0,33,33,81,80.79113830000279,,,,,,,,,80.77717309999935,80.79113830000279,80.79113830000279,,81.2418534999997,m,0.4430122999983723,None,m,m,,,,010,001,2024-11-23_18h21.33.983,Lexical Decision Making,2024.1.5,None,2024-11-23 18h21.50.495612 +0530,
c a b l e,1.0,neutral,m,0,34,34,78,81.25698059999922,,,,,,,,,81.24331470000106,81.25698059999922,81.25698059999922,81.75535500000115,81.77373219999936,m,0.5031429000009666,None,m,m,,,,010,001,2024-11-23_18h21.33.983,Lexical Decision Making,2024.1.5,None,2024-11-23 18h21.50.495612 +0530,
l o v e,1.0,positive,m,0,35,35,0,81.78868000000148,,,,,,,,,81.77476240000033,81.78868000000148,81.78868000000148,82.303880200001,82.30547760000263,m,0.5016965999966487,None,m,m,,,,010,001,2024-11-23_18h21.33.983,Lexical Decision Making,2024.1.5,None,2024-11-23 18h21.50.495612 +0530,
c h a i r,1.0,neutral,m,0,36,36,7,82.32034950000161,,,,,,,,,82.30643509999936,82.32034950000161,82.32034950000161,,82.78786480000053,m,0.4640802000030817,None,m,m,,,,010,001,2024-11-23_18h21.33.983,Lexical Decision Making,2024.1.5,None,2024-11-23 18h21.50.495612 +0530,
l a w v e r,0.0,non-word,z,0,37,37,76,82.80243880000126,,,,,,,,,82.78884029999972,82.80243880000126,82.80243880000126,83.31756040000255,84.10047970000232,z,1.2855994000019564,None,z,z,,,,010,001,2024-11-23_18h21.33.983,Lexical Decision Making,2024.1.5,None,2024-11-23 18h21.50.495612 +0530,
p l a n e t,1.0,neutral,m,0,38,38,47,84.11544789999971,,,,,,,,,84.1013755999993,84.11544789999971,84.11544789999971,,84.59940890000144,m,0.4719694999985222,None,m,m,,,,010,001,2024-11-23_18h21.33.983,Lexical Decision Making,2024.1.5,None,2024-11-23 18h21.50.495612 +0530,
a p p l e,1.0,neutral,m,0,39,39,32,84.61403740000242,,,,,,,,,84.6003163000023,84.61403740000242,84.61403740000242,85.12934470000255,85.19739440000194,m,0.5703140000005078,None,m,m,,,,010,001,2024-11-23_18h21.33.983,Lexical Decision Making,2024.1.5,None,2024-11-23 18h21.50.495612 +0530,
c h e e r f u l,1.0,positive,m,0,40,40,43,85.21240000000034,,,,,,,,,85.19827970000188,85.21240000000034,85.21240000000034,85.72777430000133,85.74628590000066,m,0.5303110999993805,None,m,m,,,,010,001,2024-11-23_18h21.33.983,Lexical Decision Making,2024.1.5,None,2024-11-23 18h21.50.495612 +0530,
t a b l e,1.0,neutral,m,0,41,41,6,85.76096959999995,,,,,,,,,85.74718480000229,85.76096959999995,85.76096959999995,86.27620670000033,86.26126320000185,m,0.4860164999990957,None,m,m,,,,010,001,2024-11-23_18h21.33.983,Lexical Decision Making,2024.1.5,None,2024-11-23 18h21.50.495612 +0530,
a n g e r,1.0,negative,m,0,42,42,15,86.27620670000033,,,,,,,,,86.2621880000006,86.27620670000033,86.27620670000033,,86.75981999999931,m,0.4778666999991401,None,m,m,,,,010,001,2024-11-23_18h21.33.983,Lexical Decision Making,2024.1.5,None,2024-11-23 18h21.50.495612 +0530,
c r y,1.0,negative,m,0,43,43,61,86.77476419999948,,,,,,,,,86.7610691000009,86.77476419999948,86.77476419999948,87.29016350000165,88.25592400000096,m,1.467460600000777,None,m,m,,,,010,001,2024-11-23_18h21.33.983,Lexical Decision Making,2024.1.5,None,2024-11-23 18h21.50.495612 +0530,
f e a r f u l,1.0,negative,m,0,44,44,98,88.27073709999968,,,,,,,,,88.25720270000238,88.27073709999968,88.27073709999968,88.78614089999974,88.93718269999954,m,0.6550576999979967,None,m,m,,,,010,001,2024-11-23_18h21.33.983,Lexical Decision Making,2024.1.5,None,2024-11-23 18h21.50.495612 +0530,
j o y f u l,1.0,positive,m,0,45,45,19,88.96899300000223,,,,,,,,,88.93826000000263,88.96899300000223,88.96899300000223,89.48401260000173,89.46914950000064,m,0.4891443000014988,None,m,m,,,,010,001,2024-11-23_18h21.33.983,Lexical Decision Making,2024.1.5,None,2024-11-23 18h21.50.495612 +0530,
t w o r i k,0.0,non-word,z,0,46,46,93,89.48401260000173,,,,,,,,,89.47028720000162,89.48401260000173,89.48401260000173,89.99937330000103,90.66575410000223,z,1.1647360999995726,None,z,z,,,,010,001,2024-11-23_18h21.33.983,Lexical Decision Making,2024.1.5,None,2024-11-23 18h21.50.495612 +0530,
f l o r t,0.0,non-word,z,0,47,47,11,90.68073100000038,,,,,,,,,90.66665529999955,90.68073100000038,90.68073100000038,,91.13124160000007,m,0.43847480000113137,None,m,z,,,,010,001,2024-11-23_18h21.33.983,Lexical Decision Making,2024.1.5,None,2024-11-23 18h21.50.495612 +0530,
m u r k l e,0.0,non-word,z,0,48,48,66,91.14627680000194,,,,,,,,,91.13216260000263,91.14627680000194,91.14627680000194,91.66157220000241,92.51161929999944,z,1.362121099999058,None,z,z,,,,010,001,2024-11-23_18h21.33.983,Lexical Decision Making,2024.1.5,None,2024-11-23 18h21.50.495612 +0530,
t r a i n,1.0,neutral,m,0,49,49,40,92.5261496000021,,,,,,,,,92.51251430000048,92.5261496000021,92.5261496000021,93.04109020000033,93.05920730000071,m,0.5229371999994328,None,m,m,,,,010,001,2024-11-23_18h21.33.983,Lexical Decision Making,2024.1.5,None,2024-11-23 18h21.50.495612 +0530,
z o m p r e,0.0,non-word,z,0,50,50,73,93.07473419999951,,,,,,,,,93.0600981000025,93.07473419999951,93.07473419999951,93.5738502000022,94.50622669999939,z,1.4290905999987444,None,z,z,,,,010,001,2024-11-23_18h21.33.983,Lexical Decision Making,2024.1.5,None,2024-11-23 18h21.50.495612 +0530,
z a r f e t,0.0,non-word,z,0,51,51,31,94.52122380000219,,,,,,,,,94.50717620000069,94.52122380000219,94.52122380000219,,94.90564050000103,m,0.36944189999849186,None,m,z,,,,010,001,2024-11-23_18h21.33.983,Lexical Decision Making,2024.1.5,None,2024-11-23 18h21.50.495612 +0530,
c h i n d l e,0.0,non-word,z,0,52,52,8,94.93636700000206,,,,,,,,,94.90674570000192,94.93636700000206,94.93636700000206,95.45127810000122,95.60269569999946,m,0.6559966999993776,None,m,z,,,,010,001,2024-11-23_18h21.33.983,Lexical Decision Making,2024.1.5,None,2024-11-23 18h21.50.495612 +0530,
s a d n e s s,1.0,negative,m,0,53,53,88,95.6175676999992,,,,,,,,,95.60363140000118,95.6175676999992,95.6175676999992,96.13290290000077,99.27568720000272,m,3.6483895999990636,None,m,m,,,,010,001,2024-11-23_18h21.33.983,Lexical Decision Making,2024.1.5,None,2024-11-23 18h21.50.495612 +0530,
a n g e r,1.0,negative,m,0,54,54,44,99.29063719999976,,,,,,,,,99.27665949999937,99.29063719999976,99.29063719999976,,99.75787400000263,m,0.4634098999995331,None,m,m,,,,010,001,2024-11-23_18h21.33.983,Lexical Decision Making,2024.1.5,None,2024-11-23 18h21.50.495612 +0530,
m i s e r y,1.0,negative,m,0,55,55,34,99.77270700000008,,,,,,,,,99.75875540000197,99.77270700000008,99.77270700000008,100.28831510000236,100.50529330000063,m,0.7154232000029879,None,m,m,,,,010,001,2024-11-23_18h21.33.983,Lexical Decision Making,2024.1.5,None,2024-11-23 18h21.50.495612 +0530,
d r o n t,0.0,non-word,z,0,56,56,95,100.52053250000245,,,,,,,,,100.5061953000004,100.52053250000245,100.52053250000245,101.03593309999997,101.86861879999924,z,1.3398581000001286,None,z,z,,,,010,001,2024-11-23_18h21.33.983,Lexical Decision Making,2024.1.5,None,2024-11-23 18h21.50.495612 +0530,
d r e n k,0.0,non-word,z,0,57,57,4,101.88360660000035,,,,,,,,,101.86955619999935,101.88360660000035,101.88360660000035,,102.36763520000022,m,0.4818181000009645,None,m,z,,,,010,001,2024-11-23_18h21.33.983,Lexical Decision Making,2024.1.5,None,2024-11-23 18h21.50.495612 +0530,
d r i n t,0.0,non-word,z,0,58,58,23,102.38213810000161,,,,,,,,,102.36856800000169,102.38213810000161,102.38213810000161,102.89748089999921,103.97978520000106,z,1.5811627000002773,None,z,z,,,,010,001,2024-11-23_18h21.33.983,Lexical Decision Making,2024.1.5,None,2024-11-23 18h21.50.495612 +0530,
c a l e n d a r,1.0,neutral,m,0,59,59,86,103.99429790000067,,,,,,,,,103.98067040000024,103.99429790000067,103.99429790000067,104.50974940000015,104.52833150000151,m,0.5229002000014589,None,m,m,,,,010,001,2024-11-23_18h21.33.983,Lexical Decision Making,2024.1.5,None,2024-11-23 18h21.50.495612 +0530,
s m o r n,0.0,non-word,z,0,60,60,14,104.54301280000072,,,,,,,,,104.52921490000153,104.54301280000072,104.54301280000072,105.05819970000084,105.64158040000257,m,1.0858684000013454,None,m,z,,,,010,001,2024-11-23_18h21.33.983,Lexical Decision Making,2024.1.5,None,2024-11-23 18h21.50.495612 +0530,
t r e n k,0.0,non-word,z,0,61,61,57,105.65658370000165,,,,,,,,,105.64272730000084,105.65658370000165,105.65658370000165,106.17202600000019,107.13753130000259,z,1.4648383999992802,None,z,z,,,,010,001,2024-11-23_18h21.33.983,Lexical Decision Making,2024.1.5,None,2024-11-23 18h21.50.495612 +0530,
r e g r e t,1.0,negative,m,0,62,62,64,107.15263060000143,,,,,,,,,107.13856529999975,107.15263060000143,107.15263060000143,,107.63608440000098,m,0.46735740000076476,None,m,m,,,,010,001,2024-11-23_18h21.33.983,Lexical Decision Making,2024.1.5,None,2024-11-23 18h21.50.495612 +0530,
c l o c k,1.0,neutral,m,0,63,63,48,107.65120640000168,,,,,,,,,107.6370104000016,107.65120640000168,107.65120640000168,108.16673219999939,108.28454690000217,m,0.6305451000007452,None,m,m,,,,010,001,2024-11-23_18h21.33.983,Lexical Decision Making,2024.1.5,None,2024-11-23 18h21.50.495612 +0530,
v o b l i t,0.0,non-word,z,0,64,64,38,108.29942680000022,,,,,,,,,108.2854425000005,108.29942680000022,108.29942680000022,108.81491300000198,109.56415520000155,m,1.2572744999997667,None,m,z,,,,010,001,2024-11-23_18h21.33.983,Lexical Decision Making,2024.1.5,None,2024-11-23 18h21.50.495612 +0530,
g r u f f i l,0.0,non-word,z,0,65,65,49,109.57909380000274,,,,,,,,,109.56507400000191,109.57909380000274,109.57909380000274,110.07787770000141,110.09643209999922,m,0.5026577000026009,None,m,z,,,,010,001,2024-11-23_18h21.33.983,Lexical Decision Making,2024.1.5,None,2024-11-23 18h21.50.495612 +0530,
c l o c k,1.0,neutral,m,0,66,66,20,110.11108969999987,,,,,,,,,110.09733860000051,110.11108969999987,110.11108969999987,110.6265005000023,110.72762530000182,m,0.6011585000014747,None,m,m,,,,010,001,2024-11-23_18h21.33.983,Lexical Decision Making,2024.1.5,None,2024-11-23 18h21.50.495612 +0530,
m e t r o,1.0,neutral,m,0,67,67,96,110.74264390000099,,,,,,,,,110.72889740000028,110.74264390000099,110.74264390000099,111.25806640000155,111.37623399999939,m,0.6230818000003637,None,m,m,,,,010,001,2024-11-23_18h21.33.983,Lexical Decision Making,2024.1.5,None,2024-11-23 18h21.50.495612 +0530,
d e s p a i r,1.0,negative,m,0,68,68,56,111.39093259999936,,,,,,,,,111.37737600000037,111.39093259999936,111.39093259999936,111.88990710000144,112.58953470000051,m,1.1858154000001377,None,m,m,,,,010,001,2024-11-23_18h21.33.983,Lexical Decision Making,2024.1.5,None,2024-11-23 18h21.50.495612 +0530,
b l o r p,0.0,non-word,z,0,69,69,60,112.60417240000243,,,,,,,,,112.5904186000007,112.60417240000243,112.60417240000243,113.10295980000228,114.33472240000265,z,1.7239221000018006,None,z,z,,,,010,001,2024-11-23_18h21.33.983,Lexical Decision Making,2024.1.5,None,2024-11-23 18h21.50.495612 +0530,
s u n s h i n e,1.0,positive,m,0,70,70,30,114.3494752000006,,,,,,,,,114.33563400000276,114.3494752000006,114.3494752000006,114.8648159000004,114.96656690000236,m,0.6119509999989532,None,m,m,,,,010,001,2024-11-23_18h21.33.983,Lexical Decision Making,2024.1.5,None,2024-11-23 18h21.50.495612 +0530,
f a i l u r e,1.0,negative,m,0,71,71,77,114.98127400000158,,,,,,,,,114.9674726000012,114.98127400000158,114.98127400000158,115.4963940000016,115.53124100000059,m,0.533603600000788,None,m,m,,,,010,001,2024-11-23_18h21.33.983,Lexical Decision Making,2024.1.5,None,2024-11-23 18h21.50.495612 +0530,
q u i b l e n,0.0,non-word,z,0,72,72,91,115.54752580000059,,,,,,,,,115.53217860000223,115.54752580000059,115.54752580000059,116.0626685999996,116.13039270000081,m,0.5690782999990915,None,m,z,,,,010,001,2024-11-23_18h21.33.983,Lexical Decision Making,2024.1.5,None,2024-11-23 18h21.50.495612 +0530,
p e n c i l,1.0,neutral,m,0,73,73,24,116.145517500001,,,,,,,,,116.13145889999942,116.145517500001,116.145517500001,116.66074690000096,116.7288950000002,m,0.5667998999997508,None,m,m,,,,010,001,2024-11-23_18h21.33.983,Lexical Decision Making,2024.1.5,None,2024-11-23 18h21.50.495612 +0530,
b l o r p,0.0,non-word,z,0,74,74,84,116.74409630000082,,,,,,,,,116.72982559999946,116.74409630000082,116.74409630000082,117.25926030000119,117.55990820000079,z,0.810011300000042,None,z,z,,,,010,001,2024-11-23_18h21.33.983,Lexical Decision Making,2024.1.5,None,2024-11-23 18h21.50.495612 +0530,
p e n c i l,1.0,neutral,m,0,75,75,37,117.59066770000209,,,,,,,,,117.56081090000225,117.59066770000209,117.59066770000209,118.10601060000045,118.10753699999987,m,0.5035720999985642,None,m,m,,,,010,001,2024-11-23_18h21.33.983,Lexical Decision Making,2024.1.5,None,2024-11-23 18h21.50.495612 +0530,
g r a t i t u d e,1.0,positive,m,0,76,76,41,118.12256310000157,,,,,,,,,118.10850349999964,118.12256310000157,118.12256310000157,118.63797669999985,118.77246130000276,m,0.6473774000005506,None,m,m,,,,010,001,2024-11-23_18h21.33.983,Lexical Decision Making,2024.1.5,None,2024-11-23 18h21.50.495612 +0530,
m o u n t a i n,1.0,neutral,m,0,77,77,71,118.78744200000074,,,,,,,,,118.7733767000027,118.78744200000074,118.78744200000074,119.30284129999927,119.37063390000185,m,0.5703754000023764,None,m,m,,,,010,001,2024-11-23_18h21.33.983,Lexical Decision Making,2024.1.5,None,2024-11-23 18h21.50.495612 +0530,
g r i n d l e,0.0,non-word,z,0,78,78,3,119.38586550000036,,,,,,,,,119.37153659999967,119.38586550000036,119.38586550000036,119.901139900001,120.20222020000074,m,0.8062071000022115,None,m,z,,,,010,001,2024-11-23_18h21.33.983,Lexical Decision Making,2024.1.5,None,2024-11-23 18h21.50.495612 +0530,
d r e a m,1.0,positive,m,0,79,79,9,120.21694720000232,,,,,,,,,120.20313710000119,120.21694720000232,120.21694720000232,120.7322129000022,121.01637430000119,m,0.7899150000012014,None,m,m,,,,010,001,2024-11-23_18h21.33.983,Lexical Decision Making,2024.1.5,None,2024-11-23 18h21.50.495612 +0530,
s a d,1.0,negative,m,0,80,80,87,121.03132040000128,,,,,,,,,121.01725980000265,121.03132040000128,121.03132040000128,121.54656840000098,121.59798320000118,m,0.5501345000011497,None,m,m,,,,010,001,2024-11-23_18h21.33.983,Lexical Decision Making,2024.1.5,None,2024-11-23 18h21.50.495612 +0530,
l a m p,1.0,neutral,m,0,81,81,42,121.61306550000154,,,,,,,,,121.5988892000023,121.61306550000154,121.61306550000154,122.1284622000021,122.14631999999983,m,0.528089600000385,None,m,m,,,,010,001,2024-11-23_18h21.33.983,Lexical Decision Making,2024.1.5,None,2024-11-23 18h21.50.495612 +0530,
s m o r n,0.0,non-word,z,0,82,82,51,122.16161850000208,,,,,,,,,122.14728749999995,122.16161850000208,122.16161850000208,122.6769630000017,123.42656150000039,z,1.2517215999978362,None,z,z,,,,010,001,2024-11-23_18h21.33.983,Lexical Decision Making,2024.1.5,None,2024-11-23 18h21.50.495612 +0530,
c r i t i c i s m,1.0,negative,m,0,83,83,26,123.44200180000189,,,,,,,,,123.42747400000007,123.44200180000189,123.44200180000189,123.95661130000008,123.99221840000246,m,0.538018799998099,None,m,m,,,,010,001,2024-11-23_18h21.33.983,Lexical Decision Making,2024.1.5,None,2024-11-23 18h21.50.495612 +0530,
t r a g e d y,1.0,negative,m,0,84,84,70,124.006866300002,,,,,,,,,123.9931123000024,124.006866300002,124.006866300002,124.52185830000235,125.28793740000037,m,1.2734420999986469,None,m,m,,,,010,001,2024-11-23_18h21.33.983,Lexical Decision Making,2024.1.5,None,2024-11-23 18h21.50.495612 +0530,
g l o r b y,0.0,non-word,z,0,85,85,28,125.30289769999945,,,,,,,,,125.28881570000158,125.30289769999945,125.30289769999945,125.80254170000262,127.68203240000003,z,2.3645897999995213,None,z,z,,,,010,001,2024-11-23_18h21.33.983,Lexical Decision Making,2024.1.5,None,2024-11-23 18h21.50.495612 +0530,
b o t t l e,1.0,neutral,m,0,86,86,58,127.69726920000176,,,,,,,,,127.68292180000208,127.69726920000176,127.69726920000176,,128.13146020000204,m,0.42118399999890244,None,m,m,,,,010,001,2024-11-23_18h21.33.983,Lexical Decision Making,2024.1.5,None,2024-11-23 18h21.50.495612 +0530,
h a t e,1.0,negative,m,0,87,87,74,128.1462238999993,,,,,,,,,128.1327412999999,128.1462238999993,128.1462238999993,128.6613133000028,128.71263120000003,m,0.5502308000031917,None,m,m,,,,010,001,2024-11-23_18h21.33.983,Lexical Decision Making,2024.1.5,None,2024-11-23 18h21.50.495612 +0530,
e x c i t e d,1.0,positive,m,0,88,88,72,128.72784740000134,,,,,,,,,128.71355120000226,128.72784740000134,128.72784740000134,129.24307640000188,129.24458770000274,m,0.5051213000006101,None,m,m,,,,010,001,2024-11-23_18h21.33.983,Lexical Decision Making,2024.1.5,None,2024-11-23 18h21.50.495612 +0530,
h a p p y,1.0,positive,m,0,89,89,21,129.25966060000064,,,,,,,,,129.24545820000276,129.25966060000064,129.25966060000064,129.77498220000052,129.79295080000156,m,0.5217104000003019,None,m,m,,,,010,001,2024-11-23_18h21.33.983,Lexical Decision Making,2024.1.5,None,2024-11-23 18h21.50.495612 +0530,
c l o u d,1.0,neutral,m,0,90,90,94,129.8082097000006,,,,,,,,,129.7938329000026,129.8082097000006,129.8082097000006,130.3235003000009,130.32554380000147,m,0.5097214999987045,None,m,m,,,,010,001,2024-11-23_18h21.33.983,Lexical Decision Making,2024.1.5,None,2024-11-23 18h21.50.495612 +0530,
s a d n e s s,1.0,negative,m,0,91,91,65,130.34011870000177,,,,,,,,,130.3264151000003,130.34011870000177,130.34011870000177,130.85527619999993,130.9736195000005,m,0.623218500000803,None,m,m,,,,010,001,2024-11-23_18h21.33.983,Lexical Decision Making,2024.1.5,None,2024-11-23 18h21.50.495612 +0530,
g r i n d l e,0.0,non-word,z,0,92,92,54,130.98827040000106,,,,,,,,,130.9748557999992,130.98827040000106,130.98827040000106,131.5035069000005,132.41927550000037,m,1.4159556999984488,None,m,z,,,,010,001,2024-11-23_18h21.33.983,Lexical Decision Making,2024.1.5,None,2024-11-23 18h21.50.495612 +0530,
c l i b b e t,0.0,non-word,z,0,93,93,12,132.4344607000021,,,,,,,,,132.42018169999938,132.4344607000021,132.4344607000021,132.94957889999932,133.26690600000074,z,0.8211071999976411,None,z,z,,,,010,001,2024-11-23_18h21.33.983,Lexical Decision Making,2024.1.5,None,2024-11-23 18h21.50.495612 +0530,
g r i e f,1.0,negative,m,0,94,94,50,133.28207269999984,,,,,,,,,133.26778770000237,133.28207269999984,133.28207269999984,133.79728090000208,133.78220540000257,m,0.4883119000005536,None,m,m,,,,010,001,2024-11-23_18h21.33.983,Lexical Decision Making,2024.1.5,None,2024-11-23 18h21.50.495612 +0530,
v a b l i n,0.0,non-word,z,0,95,95,1,133.79728090000208,,,,,,,,,133.78323330000057,133.79728090000208,133.79728090000208,134.31262300000162,135.09578160000092,m,1.2936177000010503,None,m,z,,,,010,001,2024-11-23_18h21.33.983,Lexical Decision Making,2024.1.5,None,2024-11-23 18h21.50.495612 +0530,
w i n d o w,1.0,neutral,m,0,96,96,68,135.11042219999945,,,,,,,,,135.09668109999984,135.11042219999945,135.11042219999945,135.60905690000072,135.59478260000105,m,0.482091699999728,None,m,m,,,,010,001,2024-11-23_18h21.33.983,Lexical Decision Making,2024.1.5,None,2024-11-23 18h21.50.495612 +0530,
b r a s k,0.0,non-word,z,0,97,97,79,135.60905690000072,,,,,,,,,135.59566489999997,135.60905690000072,135.60905690000072,136.12425190000067,136.55768060000264,z,0.9317675999991479,None,z,z,,,,010,001,2024-11-23_18h21.33.983,Lexical Decision Making,2024.1.5,None,2024-11-23 18h21.50.495612 +0530,
a c h i e v e m e n t,1.0,positive,m,0,98,98,27,136.57305690000067,,,,,,,,,136.5585773999992,136.57305690000067,136.57305690000067,,136.87393650000013,m,0.2969405000003462,None,m,m,,,,010,001,2024-11-23_18h21.33.983,Lexical Decision Making,2024.1.5,None,2024-11-23 18h21.50.495612 +0530,
l o m e b,0.0,non-word,z,0,99,99,90,136.88885440000013,,,,,,,,,136.87507190000179,136.88885440000013,136.88885440000013,137.40404839999974,137.62179130000004,m,0.7153485000017099,None,m,z,,,,010,001,2024-11-23_18h21.33.983,Lexical Decision Making,2024.1.5,None,2024-11-23 18h21.50.495612 +0530,
t w o r i k,0.0,non-word,z,1,0,100,93,137.63712040000246,,,,,,,,,137.62314909999986,137.63712040000246,137.63712040000246,138.15204630000153,144.40360970000256,z,6.7627176999994845,None,z,z,,,,010,001,2024-11-23_18h21.33.983,Lexical Decision Making,2024.1.5,None,2024-11-23 18h21.50.495612 +0530,
m e t r o,1.0,neutral,m,1,1,101,96,144.4182322000015,,,,,,,,,144.40449310000258,144.4182322000015,144.4182322000015,,144.9019214,m,0.4687828000023728,None,m,m,,,,010,001,2024-11-23_18h21.33.983,Lexical Decision Making,2024.1.5,None,2024-11-23 18h21.50.495612 +0530,
r e g r e t,1.0,negative,m,1,2,102,64,144.91689250000127,,,,,,,,,144.9028188000011,144.91689250000127,144.91689250000127,145.43218980000165,145.6000832000027,m,0.667683700001362,None,m,m,,,,010,001,2024-11-23_18h21.33.983,Lexical Decision Making,2024.1.5,None,2024-11-23 18h21.50.495612 +0530,
g r i n d l e,0.0,non-word,z,1,3,103,3,145.61498650000067,,,,,,,,,145.60097200000018,145.61498650000067,145.61498650000067,146.1303977000025,146.64740340000208,m,1.0302921999973478,None,m,z,,,,010,001,2024-11-23_18h21.33.983,Lexical Decision Making,2024.1.5,None,2024-11-23 18h21.50.495612 +0530,
f l o r t,0.0,non-word,z,1,4,104,11,146.66222630000266,,,,,,,,,146.64828860000125,146.66222630000266,146.66222630000266,147.17794670000148,147.17941450000217,m,0.507272799997736,None,m,z,,,,010,001,2024-11-23_18h21.33.983,Lexical Decision Making,2024.1.5,None,2024-11-23 18h21.50.495612 +0530,
c a l e n d a r,1.0,neutral,m,1,5,105,86,147.19412010000087,,,,,,,,,147.18032630000016,147.19412010000087,147.19412010000087,147.7092545000014,147.7774285000014,m,0.5665396999975201,None,m,m,,,,010,001,2024-11-23_18h21.33.983,Lexical Decision Making,2024.1.5,None,2024-11-23 18h21.50.495612 +0530,
m i s e r y,1.0,negative,m,1,6,106,34,147.79240630000277,,,,,,,,,147.77833450000253,147.79240630000277,147.79240630000277,148.30769440000222,148.39243960000022,m,0.5844735999999102,None,m,m,,,,010,001,2024-11-23_18h21.33.983,Lexical Decision Making,2024.1.5,None,2024-11-23 18h21.50.495612 +0530,
p e n c i l,1.0,neutral,m,1,7,107,24,148.40743629999997,,,,,,,,,148.39347550000093,148.40743629999997,148.40743629999997,148.92259259999992,148.92414230000213,m,0.5056560000011814,None,m,m,,,,010,001,2024-11-23_18h21.33.983,Lexical Decision Making,2024.1.5,None,2024-11-23 18h21.50.495612 +0530,
f e a r f u l,1.0,negative,m,1,8,108,98,148.93926009999996,,,,,,,,,148.92501830000037,148.93926009999996,148.93926009999996,149.45460420000018,149.62234580000222,m,0.6734590000014578,None,m,m,,,,010,001,2024-11-23_18h21.33.983,Lexical Decision Making,2024.1.5,None,2024-11-23 18h21.50.495612 +0530,
z a r f e t,0.0,non-word,z,1,9,109,31,149.63741080000182,,,,,,,,,149.62333059999946,149.63741080000182,149.63741080000182,150.1525685000015,150.61974969999937,z,0.9724639000014577,None,z,z,,,,010,001,2024-11-23_18h21.33.983,Lexical Decision Making,2024.1.5,None,2024-11-23 18h21.50.495612 +0530,
d r o n t,0.0,non-word,z,1,10,110,95,150.6346123000003,,,,,,,,,150.62062890000016,150.6346123000003,150.6346123000003,,151.11845090000133,m,0.4690189000029932,None,m,z,,,,010,001,2024-11-23_18h21.33.983,Lexical Decision Making,2024.1.5,None,2024-11-23 18h21.50.495612 +0530,
c r y,1.0,negative,m,1,11,111,61,151.13334870000108,,,,,,,,,151.11935730000187,151.13334870000108,151.13334870000108,151.64853940000103,151.76666739999928,m,0.6305387999964296,None,m,m,,,,010,001,2024-11-23_18h21.33.983,Lexical Decision Making,2024.1.5,None,2024-11-23 18h21.50.495612 +0530,
l a m p,1.0,neutral,m,1,12,112,42,151.7817744999993,,,,,,,,,151.7675679999993,151.7817744999993,151.7817744999993,152.29669450000074,152.34852180000235,m,0.5630794999997306,None,m,m,,,,010,001,2024-11-23_18h21.33.983,Lexical Decision Making,2024.1.5,None,2024-11-23 18h21.50.495612 +0530,
g r a t i t u d e,1.0,positive,m,1,13,113,41,152.3634262000014,,,,,,,,,152.34939410000152,152.3634262000014,152.3634262000014,152.87847260000126,153.52861210000265,m,1.158558200000698,None,m,m,,,,010,001,2024-11-23_18h21.33.983,Lexical Decision Making,2024.1.5,None,2024-11-23 18h21.50.495612 +0530,
s m o r n,0.0,non-word,z,1,14,114,51,153.54355040000155,,,,,,,,,153.52991370000018,153.54355040000155,153.54355040000155,154.05861650000224,154.40923320000002,z,0.8503755999990972,None,z,z,,,,010,001,2024-11-23_18h21.33.983,Lexical Decision Making,2024.1.5,None,2024-11-23 18h21.50.495612 +0530,
d r i n t,0.0,non-word,z,1,15,115,36,154.4242899000019,,,,,,,,,154.41011490000164,154.4242899000019,154.4242899000019,,154.9079051000008,m,0.47480580000046757,None,m,z,,,,010,001,2024-11-23_18h21.33.983,Lexical Decision Making,2024.1.5,None,2024-11-23 18h21.50.495612 +0530,
l a w v e r,0.0,non-word,z,1,16,116,76,154.92302700000073,,,,,,,,,154.90892280000116,154.92302700000073,154.92302700000073,155.43822590000127,157.01885369999945,z,2.0904907999974967,None,z,z,,,,010,001,2024-11-23_18h21.33.983,Lexical Decision Making,2024.1.5,None,2024-11-23 18h21.50.495612 +0530,
q u i b l e n,0.0,non-word,z,1,17,117,91,157.03383870000107,,,,,,,,,157.01976800000193,157.03383870000107,157.03383870000107,157.54809849999947,157.5199872000012,m,0.48266810000131954,None,m,z,,,,010,001,2024-11-23_18h21.33.983,Lexical Decision Making,2024.1.5,None,2024-11-23 18h21.50.495612 +0530,
w a r,1.0,negative,m,1,18,118,67,157.54809849999947,,,,,,,,,157.52154019999944,157.54809849999947,157.54809849999947,158.06352329999936,159.01251070000217,m,1.4492444000024989,None,m,m,,,,010,001,2024-11-23_18h21.33.983,Lexical Decision Making,2024.1.5,None,2024-11-23 18h21.50.495612 +0530,
c l o u d,1.0,neutral,m,1,19,119,94,159.02756930000032,,,,,,,,,159.01351100000102,159.02756930000032,159.02756930000032,159.54272370000035,159.76091350000206,m,0.7282707000013033,None,m,m,,,,010,001,2024-11-23_18h21.33.983,Lexical Decision Making,2024.1.5,None,2024-11-23 18h21.50.495612 +0530,
e x c i t e d,1.0,positive,m,1,20,120,10,159.77533160000166,,,,,,,,,159.76182440000048,159.77533160000166,159.77533160000166,160.29067280000163,163.0183676000015,m,3.2408856000001833,None,m,m,,,,010,001,2024-11-23_18h21.33.983,Lexical Decision Making,2024.1.5,None,2024-11-23 18h21.50.495612 +0530,
d r i n t,0.0,non-word,z,1,21,121,23,163.0333059000004,,,,,,,,,163.01938160000282,163.0333059000004,163.0333059000004,163.54855859999952,175.7334695999998,z,12.68345269999918,None,z,z,,,,010,001,2024-11-23_18h21.33.983,Lexical Decision Making,2024.1.5,None,2024-11-23 18h21.50.495612 +0530,
b l o r p,0.0,non-word,z,1,22,122,5,175.7483968000015,,,,,,,,,175.7343476999995,175.7483968000015,175.7483968000015,176.26384719999987,176.26570680000077,m,0.5049424000026193,None,m,z,,,,010,001,2024-11-23_18h21.33.983,Lexical Decision Making,2024.1.5,None,2024-11-23 18h21.50.495612 +0530,
p e n c i l,1.0,neutral,m,1,23,123,37,176.28117180000118,,,,,,,,,176.26666200000182,176.28117180000118,176.28117180000118,176.79565329999969,176.84712170000057,m,0.5587826000009954,None,m,m,,,,010,001,2024-11-23_18h21.33.983,Lexical Decision Making,2024.1.5,None,2024-11-23 18h21.50.495612 +0530,
l a m p,1.0,neutral,m,1,24,124,18,176.86202609999964,,,,,,,,,176.84803260000263,176.86202609999964,176.86202609999964,,177.34581350000008,m,0.4697258999985934,None,m,m,,,,010,001,2024-11-23_18h21.33.983,Lexical Decision Making,2024.1.5,None,2024-11-23 18h21.50.495612 +0530,
s m i l e,1.0,positive,m,1,25,125,55,177.3608153999994,,,,,,,,,177.34719010000117,177.3608153999994,177.3608153999994,,177.7780171000013,m,0.40884619999997085,None,m,m,,,,010,001,2024-11-23_18h21.33.983,Lexical Decision Making,2024.1.5,None,2024-11-23 18h21.50.495612 +0530,
s a d n e s s,1.0,negative,m,1,26,126,65,177.7928565000002,,,,,,,,,177.7789628999999,177.7928565000002,177.7928565000002,178.30823400000008,178.3761994000015,m,0.5691895999989356,None,m,m,,,,010,001,2024-11-23_18h21.33.983,Lexical Decision Making,2024.1.5,None,2024-11-23 18h21.50.495612 +0530,
c r i t i c i s m,1.0,negative,m,1,27,127,26,178.3911647999994,,,,,,,,,178.37721460000103,178.3911647999994,178.3911647999994,178.9071298000017,179.02438919999986,m,0.6206256999976176,None,m,m,,,,010,001,2024-11-23_18h21.33.983,Lexical Decision Making,2024.1.5,None,2024-11-23 18h21.50.495612 +0530,
d e s p a i r,1.0,negative,m,1,28,128,56,179.03954530000192,,,,,,,,,179.02538990000176,179.03954530000192,179.03954530000192,179.55474820000018,179.65635180000027,m,0.6038619999999355,None,m,m,,,,010,001,2024-11-23_18h21.33.983,Lexical Decision Making,2024.1.5,None,2024-11-23 18h21.50.495612 +0530,
m u r k l e,0.0,non-word,z,1,29,129,66,179.67104950000066,,,,,,,,,179.6573266000014,179.67104950000066,179.67104950000066,180.18631660000028,180.70323120000103,z,1.0179141000007803,None,z,z,,,,010,001,2024-11-23_18h21.33.983,Lexical Decision Making,2024.1.5,None,2024-11-23 18h21.50.495612 +0530,
l o s s,1.0,negative,m,1,30,130,29,180.71817880000162,,,,,,,,,180.70436830000108,180.71817880000162,180.71817880000162,,181.1030694000001,m,0.36930220000067493,None,m,m,,,,010,001,2024-11-23_18h21.33.983,Lexical Decision Making,2024.1.5,None,2024-11-23 18h21.50.495612 +0530,
g r i e f,1.0,negative,m,1,31,131,50,181.11798210000052,,,,,,,,,181.10399640000105,181.11798210000052,181.11798210000052,181.63334650000252,181.7180494000022,m,0.5865188000025228,None,m,m,,,,010,001,2024-11-23_18h21.33.983,Lexical Decision Making,2024.1.5,None,2024-11-23 18h21.50.495612 +0530,
c h e e r,1.0,positive,m,1,32,132,63,181.73298910000085,,,,,,,,,181.71927180000057,181.73298910000085,181.73298910000085,182.24833020000005,182.23349990000133,m,0.49484770000344724,None,m,m,,,,010,001,2024-11-23_18h21.33.983,Lexical Decision Making,2024.1.5,None,2024-11-23 18h21.50.495612 +0530,
p l a r k,0.0,non-word,z,1,33,133,45,182.24833020000005,,,,,,,,,182.23437489999924,182.24833020000005,182.24833020000005,182.7636163999996,182.86475699999937,m,0.6061847999990277,None,m,z,,,,010,001,2024-11-23_18h21.33.983,Lexical Decision Making,2024.1.5,None,2024-11-23 18h21.50.495612 +0530,
c a b l e,1.0,neutral,m,1,34,134,78,182.88003129999925,,,,,,,,,182.86593390000053,182.88003129999925,182.88003129999925,183.39508760000172,183.4965075,m,0.6108292000026267,None,m,m,,,,010,001,2024-11-23_18h21.33.983,Lexical Decision Making,2024.1.5,None,2024-11-23 18h21.50.495612 +0530,
t r a i n,1.0,neutral,m,1,35,135,40,183.5150472000023,,,,,,,,,183.4974839000024,183.5150472000023,183.5150472000023,184.0268849000022,184.01222079999934,m,0.49347089999719174,None,m,m,,,,010,001,2024-11-23_18h21.33.983,Lexical Decision Making,2024.1.5,None,2024-11-23 18h21.50.495612 +0530,
f e a r f u l,1.0,negative,m,1,36,136,2,184.0268849000022,,,,,,,,,184.01310039999953,184.0268849000022,184.0268849000022,184.54198920000272,184.66010730000198,m,0.6287951000012981,None,m,m,,,,010,001,2024-11-23_18h21.33.983,Lexical Decision Making,2024.1.5,None,2024-11-23 18h21.50.495612 +0530,
a c h i e v e m e n t,1.0,positive,m,1,37,137,27,184.67565520000062,,,,,,,,,184.66108019999956,184.67565520000062,184.67565520000062,185.1901625999999,185.30850160000045,m,0.6275538999980199,None,m,m,,,,010,001,2024-11-23_18h21.33.983,Lexical Decision Making,2024.1.5,None,2024-11-23 18h21.50.495612 +0530,
a p p l e,1.0,neutral,m,1,38,138,32,185.3232588000028,,,,,,,,,185.3093891999997,185.3232588000028,185.3232588000028,185.8385072000019,185.8732310000014,m,0.5434951000024739,None,m,m,,,,010,001,2024-11-23_18h21.33.983,Lexical Decision Making,2024.1.5,None,2024-11-23 18h21.50.495612 +0530,
l o v e,1.0,positive,m,1,39,139,0,185.88836269999956,,,,,,,,,185.87410359999922,185.88836269999956,185.88836269999956,186.4036539000008,186.38864040000044,m,0.4921205999999074,None,m,m,,,,010,001,2024-11-23_18h21.33.983,Lexical Decision Making,2024.1.5,None,2024-11-23 18h21.50.495612 +0530,
v a b l i n,0.0,non-word,z,1,40,140,1,186.4036539000008,,,,,,,,,186.3900872000013,186.4036539000008,186.4036539000008,186.9192210000001,187.20296270000108,z,0.7877589000017906,None,z,z,,,,010,001,2024-11-23_18h21.33.983,Lexical Decision Making,2024.1.5,None,2024-11-23 18h21.50.495612 +0530,
v o b l i t,0.0,non-word,z,1,41,141,38,187.2180702000005,,,,,,,,,187.20384159999958,187.2180702000005,187.2180702000005,,187.65185440000278,m,0.4248836000006122,None,m,z,,,,010,001,2024-11-23_18h21.33.983,Lexical Decision Making,2024.1.5,None,2024-11-23 18h21.50.495612 +0530,
s m a g l e,0.0,non-word,z,1,42,142,53,187.66685250000228,,,,,,,,,187.65272370000093,187.66685250000228,187.66685250000228,188.18203469999935,188.30000330000257,m,0.6288978000011411,None,m,z,,,,010,001,2024-11-23_18h21.33.983,Lexical Decision Making,2024.1.5,None,2024-11-23 18h21.50.495612 +0530,
s w o r p y,0.0,non-word,z,1,43,143,69,188.31507620000048,,,,,,,,,188.30087730000014,188.31507620000048,188.31507620000048,188.83040470000196,207.78068110000095,z,19.463348699999187,None,z,z,,,,010,001,2024-11-23_18h21.33.983,Lexical Decision Making,2024.1.5,None,2024-11-23 18h21.50.495612 +0530,
a n g e r,1.0,negative,m,1,44,144,44,207.79522260000158,,,,,,,,,207.7815914999992,207.79522260000158,207.79522260000158,208.31041259999984,208.4115993000014,m,0.5997003000011318,None,m,m,,,,010,001,2024-11-23_18h21.33.983,Lexical Decision Making,2024.1.5,None,2024-11-23 18h21.50.495612 +0530,
c l o c k,1.0,neutral,m,1,45,145,48,208.42684569999983,,,,,,,,,208.41253150000193,208.42684569999983,208.42684569999983,208.94195989999935,208.96052079999936,m,0.5281746000000567,None,m,m,,,,010,001,2024-11-23_18h21.33.983,Lexical Decision Making,2024.1.5,None,2024-11-23 18h21.50.495612 +0530,
c l i b b e t,0.0,non-word,z,1,46,146,12,208.9753066000012,,,,,,,,,208.9618259000017,208.9753066000012,208.9753066000012,209.4905271000025,209.82438040000125,m,0.8406668999996327,None,m,z,,,,010,001,2024-11-23_18h21.33.983,Lexical Decision Making,2024.1.5,None,2024-11-23 18h21.50.495612 +0530,
s a d n e s s,1.0,negative,m,1,47,147,88,209.83960220000154,,,,,,,,,209.82527250000203,209.83960220000154,209.83960220000154,210.35474819999945,210.406235800001,m,0.5509240999999747,None,m,m,,,,010,001,2024-11-23_18h21.33.983,Lexical Decision Making,2024.1.5,None,2024-11-23 18h21.50.495612 +0530,
d r e n k,0.0,non-word,z,1,48,148,4,210.4214033999997,,,,,,,,,210.4072930000002,210.4214033999997,210.4214033999997,210.93655220000073,211.2707233000001,z,0.8431227000000945,None,z,z,,,,010,001,2024-11-23_18h21.33.983,Lexical Decision Making,2024.1.5,None,2024-11-23 18h21.50.495612 +0530,
g l o r b y,0.0,non-word,z,1,49,149,28,211.28560840000137,,,,,,,,,211.27161210000122,211.28560840000137,211.28560840000137,,211.66995980000138,m,0.3802350999976625,None,m,z,,,,010,001,2024-11-23_18h21.33.983,Lexical Decision Making,2024.1.5,None,2024-11-23 18h21.50.495612 +0530,
m o u n t a i n,1.0,neutral,m,1,50,150,71,211.7003259000012,,,,,,,,,211.67090169999938,211.7003259000012,211.7003259000012,212.21631920000073,212.3167966000001,m,0.6063953999982914,None,m,m,,,,010,001,2024-11-23_18h21.33.983,Lexical Decision Making,2024.1.5,None,2024-11-23 18h21.50.495612 +0530,
c h e e r f u l,1.0,positive,m,1,51,151,43,212.3318803000002,,,,,,,,,212.31769340000028,212.3318803000002,212.3318803000002,212.8470840000009,212.86539289999928,m,0.5271451999979035,None,m,m,,,,010,001,2024-11-23_18h21.33.983,Lexical Decision Making,2024.1.5,None,2024-11-23 18h21.50.495612 +0530,
h a t e,1.0,negative,m,1,52,152,74,212.8803427999992,,,,,,,,,212.86639320000177,212.8803427999992,212.8803427999992,213.39571310000247,213.53015000000232,m,0.6409172000021499,None,m,m,,,,010,001,2024-11-23_18h21.33.983,Lexical Decision Making,2024.1.5,None,2024-11-23 18h21.50.495612 +0530,
g r i n d l e,0.0,non-word,z,1,53,153,17,213.54525719999947,,,,,,,,,213.53107369999998,213.54525719999947,213.54525719999947,214.06075920000148,214.29508690000148,m,0.7370116000020062,None,m,z,,,,010,001,2024-11-23_18h21.33.983,Lexical Decision Making,2024.1.5,None,2024-11-23 18h21.50.495612 +0530,
b l o r p,0.0,non-word,z,1,54,154,60,214.30971449999925,,,,,,,,,214.2959785000021,214.30971449999925,214.30971449999925,214.80844570000045,215.20892040000035,z,0.8863425999988976,None,z,z,,,,010,001,2024-11-23_18h21.33.983,Lexical Decision Making,2024.1.5,None,2024-11-23 18h21.50.495612 +0530,
b r a s k,0.0,non-word,z,1,55,155,79,215.22397620000265,,,,,,,,,215.20982260000164,215.22397620000265,215.22397620000265,215.73953529999926,216.28942400000233,z,1.0504640999970434,None,z,z,,,,010,001,2024-11-23_18h21.33.983,Lexical Decision Making,2024.1.5,None,2024-11-23 18h21.50.495612 +0530,
z o m p r e,0.0,non-word,z,1,56,156,73,216.30433070000072,,,,,,,,,216.29030369999964,216.30433070000072,216.30433070000072,216.81964750000043,217.35316059999968,z,1.04631480000171,None,z,z,,,,010,001,2024-11-23_18h21.33.983,Lexical Decision Making,2024.1.5,None,2024-11-23 18h21.50.495612 +0530,
b o t t l e,1.0,neutral,m,1,57,157,58,217.3681656000008,,,,,,,,,217.35404520000156,217.3681656000008,217.3681656000008,217.8835755,217.88514410000062,m,0.5070874000011827,None,m,m,,,,010,001,2024-11-23_18h21.33.983,Lexical Decision Making,2024.1.5,None,2024-11-23 18h21.50.495612 +0530,
p l o r,0.0,non-word,z,1,58,158,52,217.8999244000006,,,,,,,,,217.88604860000123,217.8999244000006,217.8999244000006,218.41536990000168,218.46726860000126,m,0.5615537000012409,None,m,z,,,,010,001,2024-11-23_18h21.33.983,Lexical Decision Making,2024.1.5,None,2024-11-23 18h21.50.495612 +0530,
f a i l u r e,1.0,negative,m,1,59,159,77,218.48183920000156,,,,,,,,,218.46814870000162,218.48183920000156,218.48183920000156,218.99687370000174,219.09845270000005,m,0.6053303000007872,None,m,m,,,,010,001,2024-11-23_18h21.33.983,Lexical Decision Making,2024.1.5,None,2024-11-23 18h21.50.495612 +0530,
b o o k,1.0,neutral,m,1,60,160,22,219.11342340000192,,,,,,,,,219.09941710000203,219.11342340000192,219.11342340000192,,219.59714209999947,m,0.48059009999997215,None,m,m,,,,010,001,2024-11-23_18h21.33.983,Lexical Decision Making,2024.1.5,None,2024-11-23 18h21.50.495612 +0530,
c l o c k,1.0,neutral,m,1,61,161,20,219.6119190999998,,,,,,,,,219.59802300000229,219.6119190999998,219.6119190999998,220.12744740000198,220.11259749999954,m,0.4888996000008774,None,m,m,,,,010,001,2024-11-23_18h21.33.983,Lexical Decision Making,2024.1.5,None,2024-11-23 18h21.50.495612 +0530,
c e l e b r a t i o n,1.0,positive,m,1,62,162,75,220.12744740000198,,,,,,,,,220.1134717999994,220.12744740000198,220.12744740000198,220.64250549999997,220.69411319999926,m,0.5638982000018586,None,m,m,,,,010,001,2024-11-23_18h21.33.983,Lexical Decision Making,2024.1.5,None,2024-11-23 18h21.50.495612 +0530,
c r i o u s,0.0,non-word,z,1,63,163,99,220.70889440000246,,,,,,,,,220.69538620000094,220.70889440000246,220.70889440000246,221.2242662000026,222.57221840000057,z,1.8514442000014242,None,z,z,,,,010,001,2024-11-23_18h21.33.983,Lexical Decision Making,2024.1.5,None,2024-11-23 18h21.50.495612 +0530,
s t o n e,1.0,neutral,m,1,64,164,13,222.58725400000185,,,,,,,,,222.57322280000153,222.58725400000185,222.58725400000185,,223.0710211000005,m,0.4764965000031225,None,m,m,,,,010,001,2024-11-23_18h21.33.983,Lexical Decision Making,2024.1.5,None,2024-11-23 18h21.50.495612 +0530,
p l a r k,0.0,non-word,z,1,65,165,16,223.0859182000022,,,,,,,,,223.07196430000113,223.0859182000022,223.0859182000022,223.6013282999993,223.58624190000046,m,0.48435819999940577,None,m,z,,,,010,001,2024-11-23_18h21.33.983,Lexical Decision Making,2024.1.5,None,2024-11-23 18h21.50.495612 +0530,
e x c i t e d,1.0,positive,m,1,66,166,72,223.6013282999993,,,,,,,,,223.58714060000057,223.6013282999993,223.6013282999993,224.11649540000144,224.16791300000114,m,0.5502255999999761,None,m,m,,,,010,001,2024-11-23_18h21.33.983,Lexical Decision Making,2024.1.5,None,2024-11-23 18h21.50.495612 +0530,
c a r p e t,1.0,neutral,m,1,67,167,85,224.18283340000198,,,,,,,,,224.16883260000031,224.18283340000198,224.18283340000198,224.69827250000162,224.73341690000234,m,0.5440025999996578,None,m,m,,,,010,001,2024-11-23_18h21.33.983,Lexical Decision Making,2024.1.5,None,2024-11-23 18h21.50.495612 +0530,
h a p p y,1.0,positive,m,1,68,168,21,224.7479349000023,,,,,,,,,224.73431469999923,224.7479349000023,224.7479349000023,,225.19836170000053,m,0.43759080000018,None,m,m,,,,010,001,2024-11-23_18h21.33.983,Lexical Decision Making,2024.1.5,None,2024-11-23 18h21.50.495612 +0530,
g r i e f,1.0,negative,m,1,69,169,62,225.21361210000032,,,,,,,,,225.19929740000225,225.21361210000032,225.21361210000032,225.7127791999992,225.74762340000234,m,0.5187493000012182,None,m,m,,,,010,001,2024-11-23_18h21.33.983,Lexical Decision Making,2024.1.5,None,2024-11-23 18h21.50.495612 +0530,
g r u f f i l,0.0,non-word,z,1,70,170,49,225.76273370000126,,,,,,,,,225.7486471000011,225.76273370000126,225.76273370000126,226.27802760000122,226.5292971000017,m,0.7643865999998525,None,m,z,,,,010,001,2024-11-23_18h21.33.983,Lexical Decision Making,2024.1.5,None,2024-11-23 18h21.50.495612 +0530,
g r i n d l e,0.0,non-word,z,1,71,171,54,226.5439996999994,,,,,,,,,226.5302002999997,226.5439996999994,226.5439996999994,227.05926969999928,227.1609129000026,m,0.6023883000016212,None,m,z,,,,010,001,2024-11-23_18h21.33.983,Lexical Decision Making,2024.1.5,None,2024-11-23 18h21.50.495612 +0530,
s a d,1.0,negative,m,1,72,172,87,227.17553659999976,,,,,,,,,227.1618113000004,227.17553659999976,227.17553659999976,227.6916197999999,227.75911220000125,m,0.570047599998361,None,m,m,,,,010,001,2024-11-23_18h21.33.983,Lexical Decision Making,2024.1.5,None,2024-11-23 18h21.50.495612 +0530,
p l a n e t,1.0,neutral,m,1,73,173,47,227.7740608000022,,,,,,,,,227.76027560000148,227.7740608000022,227.7740608000022,228.2890748000027,228.30827090000093,m,0.531859999999142,None,m,m,,,,010,001,2024-11-23_18h21.33.983,Lexical Decision Making,2024.1.5,None,2024-11-23 18h21.50.495612 +0530,
c h a i r,1.0,neutral,m,1,74,174,7,228.32244410000203,,,,,,,,,228.30920280000282,228.32244410000203,228.32244410000203,228.82106080000085,228.87249510000038,m,0.5368840000010096,None,m,m,,,,010,001,2024-11-23_18h21.33.983,Lexical Decision Making,2024.1.5,None,2024-11-23 18h21.50.495612 +0530,
k i n d n e s s,1.0,positive,m,1,75,175,82,228.88758059999964,,,,,,,,,228.87340270000277,228.88758059999964,228.88758059999964,229.40283570000247,229.4377781000003,m,0.5351559000009729,None,m,m,,,,010,001,2024-11-23_18h21.33.983,Lexical Decision Making,2024.1.5,None,2024-11-23 18h21.50.495612 +0530,
h o p e,1.0,positive,m,1,76,176,46,229.4527503999998,,,,,,,,,229.43898339999942,229.4527503999998,229.4527503999998,229.96805640000093,230.06953300000168,m,0.6084970999982033,None,m,m,,,,010,001,2024-11-23_18h21.33.983,Lexical Decision Making,2024.1.5,None,2024-11-23 18h21.50.495612 +0530,
p a i n,1.0,negative,m,1,77,177,83,230.08433839999998,,,,,,,,,230.07055400000172,230.08433839999998,230.08433839999998,230.59956850000162,230.63413270000092,m,0.5424456999971881,None,m,m,,,,010,001,2024-11-23_18h21.33.983,Lexical Decision Making,2024.1.5,None,2024-11-23 18h21.50.495612 +0530,
p e a c e,1.0,positive,m,1,78,178,89,230.64955340000233,,,,,,,,,230.63530890000038,230.64955340000233,230.64955340000233,231.1647088000027,231.1828624000009,m,0.5205676000005042,None,m,m,,,,010,001,2024-11-23_18h21.33.983,Lexical Decision Making,2024.1.5,None,2024-11-23 18h21.50.495612 +0530,
s u c c e s s,1.0,positive,m,1,79,179,35,231.1980102000016,,,,,,,,,231.18398929999967,231.1980102000016,231.1980102000016,231.7131358000006,231.86445300000196,m,0.6602607999993779,None,m,m,,,,010,001,2024-11-23_18h21.33.983,Lexical Decision Making,2024.1.5,None,2024-11-23 18h21.50.495612 +0530,
j o y f u l,1.0,positive,m,1,80,180,19,231.87938770000255,,,,,,,,,231.86533820000113,231.87938770000255,231.87938770000255,232.3946582000026,232.3799180999995,m,0.49395690000164905,None,m,m,,,,010,001,2024-11-23_18h21.33.983,Lexical Decision Making,2024.1.5,None,2024-11-23 18h21.50.495612 +0530,
t r e n k,0.0,non-word,z,1,81,181,57,232.3946582000026,,,,,,,,,232.3808640999996,232.3946582000026,232.3946582000026,232.90982010000153,233.42709979999927,z,1.0196290999992925,None,z,z,,,,010,001,2024-11-23_18h21.33.983,Lexical Decision Making,2024.1.5,None,2024-11-23 18h21.50.495612 +0530,
t a b l e,1.0,neutral,m,1,82,182,6,233.4418207000017,,,,,,,,,233.4279865000026,233.4418207000017,233.4418207000017,,233.82601590000195,m,0.372399800002313,None,m,m,,,,010,001,2024-11-23_18h21.33.983,Lexical Decision Making,2024.1.5,None,2024-11-23 18h21.50.495612 +0530,
w i n d o w,1.0,neutral,m,1,83,183,68,233.8407522000016,,,,,,,,,233.82691890000206,233.8407522000016,233.8407522000016,234.3558703000017,234.39080130000002,m,0.5351378999985172,None,m,m,,,,010,001,2024-11-23_18h21.33.983,Lexical Decision Making,2024.1.5,None,2024-11-23 18h21.50.495612 +0530,
s o r r o w,1.0,negative,m,1,84,184,33,234.4058713000013,,,,,,,,,234.39167350000207,234.4058713000013,234.4058713000013,234.9211636,234.9730879000017,m,0.5565774999995483,None,m,m,,,,010,001,2024-11-23_18h21.33.983,Lexical Decision Making,2024.1.5,None,2024-11-23 18h21.50.495612 +0530,
c o m f o r t,1.0,positive,m,1,85,185,59,234.98753639999995,,,,,,,,,234.9739561000024,234.98753639999995,234.98753639999995,235.50279370000135,235.4879460000011,m,0.4889785000013944,None,m,m,,,,010,001,2024-11-23_18h21.33.983,Lexical Decision Making,2024.1.5,None,2024-11-23 18h21.50.495612 +0530,
s m i l e,1.0,positive,m,1,86,186,92,235.50279370000135,,,,,,,,,235.48882700000104,235.50279370000135,235.50279370000135,236.01812070000233,236.00315899999987,m,0.49448629999824334,None,m,m,,,,010,001,2024-11-23_18h21.33.983,Lexical Decision Making,2024.1.5,None,2024-11-23 18h21.50.495612 +0530,
s u n s h i n e,1.0,positive,m,1,87,187,30,236.01812070000233,,,,,,,,,236.00444900000002,236.01812070000233,236.01812070000233,236.53328160000092,236.5680945000022,m,0.5376860999967903,None,m,m,,,,010,001,2024-11-23_18h21.33.983,Lexical Decision Making,2024.1.5,None,2024-11-23 18h21.50.495612 +0530,
g r i e f,1.0,negative,m,1,88,188,81,236.58313110000017,,,,,,,,,236.56899110000086,236.58313110000017,236.58313110000017,237.09837880000123,237.09994519999964,m,0.5055949999987206,None,m,m,,,,010,001,2024-11-23_18h21.33.983,Lexical Decision Making,2024.1.5,None,2024-11-23 18h21.50.495612 +0530,
l o m e b,0.0,non-word,z,1,89,189,90,237.11504050000076,,,,,,,,,237.1012651000019,237.11504050000076,237.11504050000076,237.6303697000003,237.88117730000158,z,0.7603503999998793,None,z,z,,,,010,001,2024-11-23_18h21.33.983,Lexical Decision Making,2024.1.5,None,2024-11-23 18h21.50.495612 +0530,
d e l i g h t,1.0,positive,m,1,90,190,39,237.89628770000127,,,,,,,,,237.88217900000018,237.89628770000127,237.89628770000127,,238.31358080000064,m,0.41516809999666293,None,m,m,,,,010,001,2024-11-23_18h21.33.983,Lexical Decision Making,2024.1.5,None,2024-11-23 18h21.50.495612 +0530,
s m o r n,0.0,non-word,z,1,91,191,14,238.32837239999935,,,,,,,,,238.31449040000007,238.32837239999935,238.32837239999935,238.84370820000186,239.37726290000137,z,1.0331249000009848,None,z,z,,,,010,001,2024-11-23_18h21.33.983,Lexical Decision Making,2024.1.5,None,2024-11-23 18h21.50.495612 +0530,
t r a g e d y,1.0,negative,m,1,92,192,70,239.39215740000145,,,,,,,,,239.3781407000024,239.39215740000145,239.39215740000145,,239.72606180000002,m,0.31659679999938817,None,m,m,,,,010,001,2024-11-23_18h21.33.983,Lexical Decision Making,2024.1.5,None,2024-11-23 18h21.50.495612 +0530,
v i c t o r y,1.0,positive,m,1,93,193,25,239.74118880000242,,,,,,,,,239.72713680000015,239.74118880000242,239.74118880000242,240.25667910000266,240.35852570000134,m,0.6067097999984981,None,m,m,,,,010,001,2024-11-23_18h21.33.983,Lexical Decision Making,2024.1.5,None,2024-11-23 18h21.50.495612 +0530,
b l o r p,0.0,non-word,z,1,94,194,84,240.37282229999983,,,,,,,,,240.3594047000006,240.37282229999983,240.37282229999983,240.87150910000128,241.2220785999998,z,0.8374930999998469,None,z,z,,,,010,001,2024-11-23_18h21.33.983,Lexical Decision Making,2024.1.5,None,2024-11-23 18h21.50.495612 +0530,
p e a c e,1.0,positive,m,1,95,195,97,241.23720200000025,,,,,,,,,241.22340270000132,241.23720200000025,241.23720200000025,,241.5711775000018,m,0.31808319999981904,None,m,m,,,,010,001,2024-11-23_18h21.33.983,Lexical Decision Making,2024.1.5,None,2024-11-23 18h21.50.495612 +0530,
d r e a m,1.0,positive,m,1,96,196,9,241.58628769999996,,,,,,,,,241.5725373000023,241.58628769999996,241.58628769999996,242.10143059999973,242.9175744000022,m,1.3243385000023409,None,m,m,,,,010,001,2024-11-23_18h21.33.983,Lexical Decision Making,2024.1.5,None,2024-11-23 18h21.50.495612 +0530,
w i n d o w,1.0,neutral,m,1,97,197,80,242.93275429999994,,,,,,,,,242.9186531000014,242.93275429999994,242.93275429999994,243.4477547000024,265.8715015000016,m,22.92381970000133,None,m,m,,,,010,001,2024-11-23_18h21.33.983,Lexical Decision Making,2024.1.5,None,2024-11-23 18h21.50.495612 +0530,
a n g e r,1.0,negative,m,1,98,198,15,265.8864764000027,,,,,,,,,265.87241610000274,265.8864764000027,265.8864764000027,266.4017239999994,266.55290850000165,m,0.6572467000005418,None,m,m,,,,010,001,2024-11-23_18h21.33.983,Lexical Decision Making,2024.1.5,None,2024-11-23 18h21.50.495612 +0530,
c h i n d l e,0.0,non-word,z,1,99,199,8,266.56796920000124,,,,,,,,,266.55379080000057,266.56796920000124,266.56796920000124,267.0832012999999,267.7996227000003,m,1.2295059999996738,None,m,z,,,,010,001,2024-11-23_18h21.33.983,Lexical Decision Making,2024.1.5,None,2024-11-23 18h21.50.495612 +0530,
c o m f o r t,1.0,positive,m,2,0,200,59,267.8145861000012,,,,,,,,,267.8005169999997,267.8145861000012,267.8145861000012,268.3298207000007,268.31475879999925,m,0.491234599998279,None,m,m,,,,010,001,2024-11-23_18h21.33.983,Lexical Decision Making,2024.1.5,None,2024-11-23 18h21.50.495612 +0530,
w i n d o w,1.0,neutral,m,2,1,201,80,268.3298207000007,,,,,,,,,268.3156788000015,268.3298207000007,268.3298207000007,268.8451504000004,268.83045889999994,m,0.4946773999981815,None,m,m,,,,010,001,2024-11-23_18h21.33.983,Lexical Decision Making,2024.1.5,None,2024-11-23 18h21.50.495612 +0530,
c r i o u s,0.0,non-word,z,2,2,202,99,268.8451504000004,,,,,,,,,268.831352600002,268.8451504000004,268.8451504000004,269.3602845000023,269.5782825999995,m,0.7194209000008414,None,m,z,,,,010,001,2024-11-23_18h21.33.983,Lexical Decision Making,2024.1.5,None,2024-11-23 18h21.50.495612 +0530,
l o v e,1.0,positive,m,2,3,203,0,269.5929704000009,,,,,,,,,269.57915140000114,269.5929704000009,269.5929704000009,270.1083522000008,270.10983620000115,m,0.5014349000011862,None,m,m,,,,010,001,2024-11-23_18h21.33.983,Lexical Decision Making,2024.1.5,None,2024-11-23 18h21.50.495612 +0530,
d r i n t,0.0,non-word,z,2,4,204,23,270.1250213000021,,,,,,,,,270.11097280000104,270.1250213000021,270.1250213000021,,270.5586022999996,m,0.43051940000077593,None,m,z,,,,010,001,2024-11-23_18h21.33.983,Lexical Decision Making,2024.1.5,None,2024-11-23 18h21.50.495612 +0530,
s m i l e,1.0,positive,m,2,5,205,55,270.573739200001,,,,,,,,,270.55975620000027,270.573739200001,270.573739200001,271.08885550000196,271.1901203000016,m,0.6052235999995901,None,m,m,,,,010,001,2024-11-23_18h21.33.983,Lexical Decision Making,2024.1.5,None,2024-11-23 18h21.50.495612 +0530,
c h i n d l e,0.0,non-word,z,2,6,206,8,271.2054960000023,,,,,,,,,271.1910968000011,271.2054960000023,271.2054960000023,271.7205180000019,272.17070180000155,z,0.9520759000006365,None,z,z,,,,010,001,2024-11-23_18h21.33.983,Lexical Decision Making,2024.1.5,None,2024-11-23 18h21.50.495612 +0530,
l a w v e r,0.0,non-word,z,2,7,207,76,272.18590440000116,,,,,,,,,272.17159190000166,272.18590440000116,272.18590440000116,,272.53681770000185,m,0.3350262999992992,None,m,z,,,,010,001,2024-11-23_18h21.33.983,Lexical Decision Making,2024.1.5,None,2024-11-23 18h21.50.495612 +0530,
p a i n,1.0,negative,m,2,8,208,83,272.55163430000175,,,,,,,,,272.5376849999993,272.55163430000175,272.55163430000175,273.0668975000008,273.38429650000035,m,0.8271433999980218,None,m,m,,,,010,001,2024-11-23_18h21.33.983,Lexical Decision Making,2024.1.5,None,2024-11-23 18h21.50.495612 +0530,
l a m p,1.0,neutral,m,2,9,209,18,273.39935909999986,,,,,,,,,273.38518860000113,273.39935909999986,273.39935909999986,273.9147354000015,274.14920899999925,m,0.7415575000013632,None,m,m,,,,010,001,2024-11-23_18h21.33.983,Lexical Decision Making,2024.1.5,None,2024-11-23 18h21.50.495612 +0530,
s a d n e s s,1.0,negative,m,2,10,210,88,274.1639759999998,,,,,,,,,274.1501110999998,274.1639759999998,274.1639759999998,274.67912179999985,275.22939450000194,m,1.0577985000018089,None,m,m,,,,010,001,2024-11-23_18h21.33.983,Lexical Decision Making,2024.1.5,None,2024-11-23 18h21.50.495612 +0530,
p l o r,0.0,non-word,z,2,11,211,52,275.24464400000215,,,,,,,,,275.23052760000064,275.24464400000215,275.24464400000215,275.75949430000037,278.0719005000028,z,2.8104463999989093,None,z,z,,,,010,001,2024-11-23_18h21.33.983,Lexical Decision Making,2024.1.5,None,2024-11-23 18h21.50.495612 +0530,
g r i n d l e,0.0,non-word,z,2,12,212,54,278.08651459999965,,,,,,,,,278.07280230000106,278.08651459999965,278.08651459999965,278.60177690000273,278.6199912000011,m,0.518519400000514,None,m,z,,,,010,001,2024-11-23_18h21.33.983,Lexical Decision Making,2024.1.5,None,2024-11-23 18h21.50.495612 +0530,
c a l e n d a r,1.0,neutral,m,2,13,213,86,278.63505830000213,,,,,,,,,278.6209041000002,278.63505830000213,278.63505830000213,279.1502471999993,279.25168720000147,m,0.6071870000014314,None,m,m,,,,010,001,2024-11-23_18h21.33.983,Lexical Decision Making,2024.1.5,None,2024-11-23 18h21.50.495612 +0530,
t r a g e d y,1.0,negative,m,2,14,214,70,279.26661590000003,,,,,,,,,279.2529761000005,279.26661590000003,279.26661590000003,279.78195570000025,280.01628750000236,m,0.7349442000013369,None,m,m,,,,010,001,2024-11-23_18h21.33.983,Lexical Decision Making,2024.1.5,None,2024-11-23 18h21.50.495612 +0530,
w i n d o w,1.0,neutral,m,2,15,215,68,280.03117700000075,,,,,,,,,280.01716900000247,280.03117700000075,280.03117700000075,280.54645860000164,280.5481357000026,m,0.500828600001114,None,m,m,,,,010,001,2024-11-23_18h21.33.983,Lexical Decision Making,2024.1.5,None,2024-11-23 18h21.50.495612 +0530,
c r y,1.0,negative,m,2,16,216,61,280.5634458000022,,,,,,,,,280.54926070000147,280.5634458000022,280.5634458000022,,281.0142663000006,m,0.4486534000025131,None,m,m,,,,010,001,2024-11-23_18h21.33.983,Lexical Decision Making,2024.1.5,None,2024-11-23 18h21.50.495612 +0530,
s m o r n,0.0,non-word,z,2,17,217,51,281.04414440000255,,,,,,,,,281.0152952999997,281.04414440000255,281.04414440000255,281.55944810000074,281.94343610000215,z,0.8861299999989569,None,z,z,,,,010,001,2024-11-23_18h21.33.983,Lexical Decision Making,2024.1.5,None,2024-11-23 18h21.50.495612 +0530,
m u r k l e,0.0,non-word,z,2,18,218,66,281.9584394000012,,,,,,,,,281.94479990000036,281.9584394000012,281.9584394000012,,282.40868799999953,m,0.43307460000141873,None,m,z,,,,010,001,2024-11-23_18h21.33.983,Lexical Decision Making,2024.1.5,None,2024-11-23 18h21.50.495612 +0530,
h a p p y,1.0,positive,m,2,19,219,21,282.42366870000114,,,,,,,,,282.4095675000026,282.42366870000114,282.42366870000114,282.9390112000001,283.80482590000247,m,1.3638596000018879,None,m,m,,,,010,001,2024-11-23_18h21.33.983,Lexical Decision Making,2024.1.5,None,2024-11-23 18h21.50.495612 +0530,
f l o r t,0.0,non-word,z,2,20,220,11,283.81989260000046,,,,,,,,,283.80570790000274,283.81989260000046,283.81989260000046,284.33526170000187,289.2070457000009,z,5.37927850000051,None,z,z,,,,010,001,2024-11-23_18h21.33.983,Lexical Decision Making,2024.1.5,None,2024-11-23 18h21.50.495612 +0530,
c e l e b r a t i o n,1.0,positive,m,2,21,221,75,289.22193470000275,,,,,,,,,289.20797820000007,289.22193470000275,289.22193470000275,289.73711430000185,289.8218538000001,m,0.5961590999977489,None,m,m,,,,010,001,2024-11-23_18h21.33.983,Lexical Decision Making,2024.1.5,None,2024-11-23 18h21.50.495612 +0530,
g r i e f,1.0,negative,m,2,22,222,50,289.8368491000001,,,,,,,,,289.82276360000105,289.8368491000001,289.8368491000001,,290.30420980000054,m,0.45717660000082105,None,m,m,,,,010,001,2024-11-23_18h21.33.983,Lexical Decision Making,2024.1.5,None,2024-11-23 18h21.50.495612 +0530,
b l o r p,0.0,non-word,z,2,23,223,84,290.3236959999995,,,,,,,,,290.30512570000064,290.3236959999995,290.3236959999995,290.8349101999993,291.2358475000001,z,0.8966894999975921,None,z,z,,,,010,001,2024-11-23_18h21.33.983,Lexical Decision Making,2024.1.5,None,2024-11-23 18h21.50.495612 +0530,
p e a c e,1.0,positive,m,2,24,224,89,291.2504712000009,,,,,,,,,291.23697620000166,291.2504712000009,291.2504712000009,291.7657462999996,291.7672612000024,m,0.5054760999992141,None,m,m,,,,010,001,2024-11-23_18h21.33.983,Lexical Decision Making,2024.1.5,None,2024-11-23 18h21.50.495612 +0530,
a p p l e,1.0,neutral,m,2,25,225,32,291.7825092999992,,,,,,,,,291.7682817999994,291.7825092999992,291.7825092999992,292.2976600000002,292.7480321000003,m,0.9583172999991802,None,m,m,,,,010,001,2024-11-23_18h21.33.983,Lexical Decision Making,2024.1.5,None,2024-11-23 18h21.50.495612 +0530,
s w o r p y,0.0,non-word,z,2,26,226,69,292.7631538000023,,,,,,,,,292.74892140000156,292.7631538000023,292.7631538000023,293.26172439999937,293.72919900000124,m,0.9554931000020588,None,m,z,,,,010,001,2024-11-23_18h21.33.983,Lexical Decision Making,2024.1.5,None,2024-11-23 18h21.50.495612 +0530,
q u i b l e n,0.0,non-word,z,2,27,227,91,293.7438136000019,,,,,,,,,293.7300759999998,293.7438136000019,293.7438136000019,294.2589549000004,295.24124890000166,z,1.4903989999984333,None,z,z,,,,010,001,2024-11-23_18h21.33.983,Lexical Decision Making,2024.1.5,None,2024-11-23 18h21.50.495612 +0530,
g r i n d l e,0.0,non-word,z,2,28,228,3,295.25624510000125,,,,,,,,,295.24211210000067,295.25624510000125,295.25624510000125,295.77146110000103,296.12233990000095,m,0.8529316000021936,None,m,z,,,,010,001,2024-11-23_18h21.33.983,Lexical Decision Making,2024.1.5,None,2024-11-23 18h21.50.495612 +0530,
p e a c e,1.0,positive,m,2,29,229,97,296.1372895000022,,,,,,,,,296.12320159999945,296.1372895000022,296.1372895000022,296.6523792000007,296.7869410000021,m,0.6418618999996397,None,m,m,,,,010,001,2024-11-23_18h21.33.983,Lexical Decision Making,2024.1.5,None,2024-11-23 18h21.50.495612 +0530,
g r i e f,1.0,negative,m,2,30,230,81,296.8020426000003,,,,,,,,,296.7878063999997,296.8020426000003,296.8020426000003,297.31721050000124,297.60143080000125,m,0.7912080999994942,None,m,m,,,,010,001,2024-11-23_18h21.33.983,Lexical Decision Making,2024.1.5,None,2024-11-23 18h21.50.495612 +0530,
v a b l i n,0.0,non-word,z,2,31,231,1,297.6164910000007,,,,,,,,,297.60270590000073,297.6164910000007,297.6164910000007,298.13169969999944,298.84842130000106,m,1.2221566999978677,None,m,z,,,,010,001,2024-11-23_18h21.33.983,Lexical Decision Making,2024.1.5,None,2024-11-23 18h21.50.495612 +0530,
p l a r k,0.0,non-word,z,2,32,232,16,298.86318989999927,,,,,,,,,298.8493058000022,298.86318989999927,298.86318989999927,299.37823610000123,299.7289660000024,z,0.8519837999992887,None,z,z,,,,010,001,2024-11-23_18h21.33.983,Lexical Decision Making,2024.1.5,None,2024-11-23 18h21.50.495612 +0530,
g l o r b y,0.0,non-word,z,2,33,233,28,299.74395800000275,,,,,,,,,299.72985880000124,299.74395800000275,299.74395800000275,300.2592705999996,300.3939883999992,m,0.63297799999782,None,m,z,,,,010,001,2024-11-23_18h21.33.983,Lexical Decision Making,2024.1.5,None,2024-11-23 18h21.50.495612 +0530,
d r i n t,0.0,non-word,z,2,34,234,36,300.4088996999999,,,,,,,,,300.3948581000004,300.4088996999999,300.4088996999999,300.92407000000094,301.69054640000104,m,1.2792785000019649,None,m,z,,,,010,001,2024-11-23_18h21.33.983,Lexical Decision Making,2024.1.5,None,2024-11-23 18h21.50.495612 +0530,
d e l i g h t,1.0,positive,m,2,35,235,39,301.7055067000001,,,,,,,,,301.69144190000225,301.7055067000001,301.7055067000001,302.2205102000007,302.3721648000028,m,0.6590303999983007,None,m,m,,,,010,001,2024-11-23_18h21.33.983,Lexical Decision Making,2024.1.5,None,2024-11-23 18h21.50.495612 +0530,
s a d n e s s,1.0,negative,m,2,36,236,65,302.38676269999996,,,,,,,,,302.37318159999995,302.38676269999996,302.38676269999996,302.90189680000185,305.94579879999947,m,3.551718200000323,None,m,m,,,,010,001,2024-11-23_18h21.33.983,Lexical Decision Making,2024.1.5,None,2024-11-23 18h21.50.495612 +0530,
c r i t i c i s m,1.0,negative,m,2,37,237,26,305.9603821000019,,,,,,,,,305.947105700001,305.9603821000019,305.9603821000019,306.4763232000005,308.3223517000006,m,2.3571074000028602,None,m,m,,,,010,001,2024-11-23_18h21.33.983,Lexical Decision Making,2024.1.5,None,2024-11-23 18h21.50.495612 +0530,
c h e e r f u l,1.0,positive,m,2,38,238,43,308.3372684999995,,,,,,,,,308.32328100000086,308.3372684999995,308.3372684999995,308.8525122000028,310.71559200000047,m,2.3736826999993355,None,m,m,,,,010,001,2024-11-23_18h21.33.983,Lexical Decision Making,2024.1.5,None,2024-11-23 18h21.50.495612 +0530,
g r a t i t u d e,1.0,positive,m,2,39,239,41,310.73066160000235,,,,,,,,,310.7164929000028,310.73066160000235,310.73066160000235,311.24589050000213,312.56075410000267,m,1.821929400000954,None,m,m,,,,010,001,2024-11-23_18h21.33.983,Lexical Decision Making,2024.1.5,None,2024-11-23 18h21.50.495612 +0530,
p e n c i l,1.0,neutral,m,2,40,240,37,312.5757475999999,,,,,,,,,312.5618504000013,312.5757475999999,312.5757475999999,313.09081499999957,315.0204991999999,m,2.4306071999999403,None,m,m,,,,010,001,2024-11-23_18h21.33.983,Lexical Decision Making,2024.1.5,None,2024-11-23 18h21.50.495612 +0530,
c h a i r,1.0,neutral,m,2,41,241,7,315.03560890000153,,,,,,,,,315.021665100001,315.03560890000153,315.03560890000153,315.5510757000011,316.28380200000174,m,1.2453335999998671,None,m,m,,,,010,001,2024-11-23_18h21.33.983,Lexical Decision Making,2024.1.5,None,2024-11-23 18h21.50.495612 +0530,
l o s s,1.0,negative,m,2,42,242,29,316.29874440000276,,,,,,,,,316.28493100000196,316.29874440000276,316.29874440000276,316.81410510000205,316.83240410000144,m,0.5255709999983083,None,m,m,,,,010,001,2024-11-23_18h21.33.983,Lexical Decision Making,2024.1.5,None,2024-11-23 18h21.50.495612 +0530,
l a m p,1.0,neutral,m,2,43,243,42,316.84729230000084,,,,,,,,,316.8336968000003,316.84729230000084,316.84729230000084,317.3626308999992,318.37811090000105,m,1.5161198999994667,None,m,m,,,,010,001,2024-11-23_18h21.33.983,Lexical Decision Making,2024.1.5,None,2024-11-23 18h21.50.495612 +0530,
c a b l e,1.0,neutral,m,2,44,244,78,318.39306020000004,,,,,,,,,318.37923389999924,318.39306020000004,318.39306020000004,318.90827440000066,320.0905411999993,m,1.6958210000011604,None,m,m,,,,010,001,2024-11-23_18h21.33.983,Lexical Decision Making,2024.1.5,None,2024-11-23 18h21.50.495612 +0530,
s o r r o w,1.0,negative,m,2,45,245,33,320.10504370000126,,,,,,,,,320.0914395,320.10504370000126,320.10504370000126,320.62021670000104,321.83517610000126,m,1.7135778999981994,None,m,m,,,,010,001,2024-11-23_18h21.33.983,Lexical Decision Making,2024.1.5,None,2024-11-23 18h21.50.495612 +0530,
h a t e,1.0,negative,m,2,46,246,74,321.8502410000001,,,,,,,,,321.8364142999999,321.8502410000001,321.8502410000001,322.34887530000196,323.6471266000008,m,1.7914737000028254,None,m,m,,,,010,001,2024-11-23_18h21.33.983,Lexical Decision Making,2024.1.5,None,2024-11-23 18h21.50.495612 +0530,
m i s e r y,1.0,negative,m,2,47,247,34,323.6620600000024,,,,,,,,,323.64851590000035,323.6620600000024,323.6620600000024,324.17718570000216,325.8078142000013,m,2.1366267999983393,None,m,m,,,,010,001,2024-11-23_18h21.33.983,Lexical Decision Making,2024.1.5,None,2024-11-23 18h21.50.495612 +0530,
p e n c i l,1.0,neutral,m,2,48,248,24,325.82278620000216,,,,,,,,,325.80868810000175,325.82278620000216,325.82278620000216,326.3380109000027,327.41999660000147,m,1.58452049999687,None,m,m,,,,010,001,2024-11-23_18h21.33.983,Lexical Decision Making,2024.1.5,None,2024-11-23 18h21.50.495612 +0530,
p l a r k,0.0,non-word,z,2,49,249,45,327.434997700002,,,,,,,,,327.42089470000064,327.434997700002,327.434997700002,327.9502453999994,328.50036030000047,z,1.0573924999989686,None,z,z,,,,010,001,2024-11-23_18h21.33.983,Lexical Decision Making,2024.1.5,None,2024-11-23 18h21.50.495612 +0530,
k i n d n e s s,1.0,positive,m,2,50,250,82,328.5155259000021,,,,,,,,,328.5013632000009,328.5155259000021,328.5155259000021,329.03080110000155,329.1655208000011,m,0.6445657999975083,None,m,m,,,,010,001,2024-11-23_18h21.33.983,Lexical Decision Making,2024.1.5,None,2024-11-23 18h21.50.495612 +0530,
m e t r o,1.0,neutral,m,2,51,251,96,329.18031920000067,,,,,,,,,329.1666249000009,329.18031920000067,329.18031920000067,329.69563440000275,334.83360430000175,m,5.651503799999773,None,m,m,,,,010,001,2024-11-23_18h21.33.983,Lexical Decision Making,2024.1.5,None,2024-11-23 18h21.50.495612 +0530,
c l i b b e t,0.0,non-word,z,2,52,252,12,334.86387430000104,,,,,,,,,334.83449889999974,334.86387430000104,334.86387430000104,335.3791034999995,336.7770655000022,z,1.909963099999004,None,z,z,,,,010,001,2024-11-23_18h21.33.983,Lexical Decision Making,2024.1.5,None,2024-11-23 18h21.50.495612 +0530,
s a d,1.0,negative,m,2,53,253,87,336.79197080000085,,,,,,,,,336.77795289999995,336.79197080000085,336.79197080000085,337.30715620000046,337.3085804000002,m,0.4995066000010411,None,m,m,,,,010,001,2024-11-23_18h21.33.983,Lexical Decision Making,2024.1.5,None,2024-11-23 18h21.50.495612 +0530,
c l o u d,1.0,neutral,m,2,54,254,94,337.32366860000184,,,,,,,,,337.30967260000034,337.32366860000184,337.32366860000184,337.83970410000256,338.4390714000001,m,1.1102632000001904,None,m,m,,,,010,001,2024-11-23_18h21.33.983,Lexical Decision Making,2024.1.5,None,2024-11-23 18h21.50.495612 +0530,
b l o r p,0.0,non-word,z,2,55,255,60,338.45465940000213,,,,,,,,,338.43993520000004,338.45465940000213,338.45465940000213,338.9697382000013,339.22045250000156,z,0.7493885000003502,None,z,z,,,,010,001,2024-11-23_18h21.33.983,Lexical Decision Making,2024.1.5,None,2024-11-23 18h21.50.495612 +0530,
w a r,1.0,negative,m,2,56,256,67,339.235416800002,,,,,,,,,339.221352200002,339.235416800002,339.235416800002,339.75048230000175,339.88505120000264,m,0.6427656000014395,None,m,m,,,,010,001,2024-11-23_18h21.33.983,Lexical Decision Making,2024.1.5,None,2024-11-23 18h21.50.495612 +0530,
f e a r f u l,1.0,negative,m,2,57,257,2,339.89993669999967,,,,,,,,,339.8859158000014,339.89993669999967,339.89993669999967,340.41533400000117,341.1319662999995,m,1.2283158999998705,None,m,m,,,,010,001,2024-11-23_18h21.33.983,Lexical Decision Making,2024.1.5,None,2024-11-23 18h21.50.495612 +0530,
t a b l e,1.0,neutral,m,2,58,258,6,341.14667499999996,,,,,,,,,341.1329708000012,341.14667499999996,341.14667499999996,341.66205959999934,342.59462370000256,m,1.4374810999979672,None,m,m,,,,010,001,2024-11-23_18h21.33.983,Lexical Decision Making,2024.1.5,None,2024-11-23 18h21.50.495612 +0530,
f a i l u r e,1.0,negative,m,2,59,259,77,342.6094286000007,,,,,,,,,342.59550090000266,342.6094286000007,342.6094286000007,343.1245592000014,344.1566046000007,m,1.5341569999982312,None,m,m,,,,010,001,2024-11-23_18h21.33.983,Lexical Decision Making,2024.1.5,None,2024-11-23 18h21.50.495612 +0530,
c h e e r,1.0,positive,m,2,60,260,63,344.1716790999999,,,,,,,,,344.15747399999964,344.1716790999999,344.1716790999999,344.6871159000002,345.6528414000022,m,1.4672069000007468,None,m,m,,,,010,001,2024-11-23_18h21.33.983,Lexical Decision Making,2024.1.5,None,2024-11-23 18h21.50.495612 +0530,
l o m e b,0.0,non-word,z,2,61,261,90,345.6676090000001,,,,,,,,,345.65380070000174,345.6676090000001,345.6676090000001,346.1836445000008,347.0487376000019,z,1.3692558999973699,None,z,z,,,,010,001,2024-11-23_18h21.33.983,Lexical Decision Making,2024.1.5,None,2024-11-23 18h21.50.495612 +0530,
g r u f f i l,0.0,non-word,z,2,62,262,49,347.0637562000011,,,,,,,,,347.0497346000011,347.0637562000011,347.0637562000011,347.57918450000216,348.47830950000207,z,1.401640399999451,None,z,z,,,,010,001,2024-11-23_18h21.33.983,Lexical Decision Making,2024.1.5,None,2024-11-23 18h21.50.495612 +0530,
s m o r n,0.0,non-word,z,2,63,263,14,348.4931346000012,,,,,,,,,348.47921860000133,348.4931346000012,348.4931346000012,348.99218649999966,350.0905855000019,z,1.588343999999779,None,z,z,,,,010,001,2024-11-23_18h21.33.983,Lexical Decision Making,2024.1.5,None,2024-11-23 18h21.50.495612 +0530,
v o b l i t,0.0,non-word,z,2,64,264,38,350.1055367000008,,,,,,,,,350.0915101000028,350.1055367000008,350.1055367000008,350.6208308999994,357.4534564000023,z,7.330747700001666,None,z,z,,,,010,001,2024-11-23_18h21.33.983,Lexical Decision Making,2024.1.5,None,2024-11-23 18h21.50.495612 +0530,
p l a n e t,1.0,neutral,m,2,65,265,47,357.46886150000137,,,,,,,,,357.4548246000013,357.46886150000137,357.46886150000137,357.9840812000002,358.11895260000165,m,0.636006400000042,None,m,m,,,,010,001,2024-11-23_18h21.33.983,Lexical Decision Making,2024.1.5,None,2024-11-23 18h21.50.495612 +0530,
z o m p r e,0.0,non-word,z,2,66,266,73,358.1335177000001,,,,,,,,,358.1198258000004,358.1335177000001,358.1335177000001,358.6322575000013,359.0495652999998,z,0.899867500000255,None,z,z,,,,010,001,2024-11-23_18h21.33.983,Lexical Decision Making,2024.1.5,None,2024-11-23 18h21.50.495612 +0530,
b r a s k,0.0,non-word,z,2,67,267,79,359.06446549999964,,,,,,,,,359.0505202000022,359.06446549999964,359.06446549999964,359.5796850000006,360.26299070000096,z,1.1948282000012114,None,z,z,,,,010,001,2024-11-23_18h21.33.983,Lexical Decision Making,2024.1.5,None,2024-11-23 18h21.50.495612 +0530,
d e s p a i r,1.0,negative,m,2,68,268,56,360.27782930000103,,,,,,,,,360.26385909999954,360.27782930000103,360.27782930000103,360.79305960000056,361.72540460000164,m,1.43392859999949,None,m,m,,,,010,001,2024-11-23_18h21.33.983,Lexical Decision Making,2024.1.5,None,2024-11-23 18h21.50.495612 +0530,
s u n s h i n e,1.0,positive,m,2,69,269,30,361.7404529000014,,,,,,,,,361.7264047000026,361.7404529000014,361.7404529000014,362.2557102000028,362.85571100000016,m,1.0980797999982315,None,m,m,,,,010,001,2024-11-23_18h21.33.983,Lexical Decision Making,2024.1.5,None,2024-11-23 18h21.50.495612 +0530,
s t o n e,1.0,neutral,m,2,70,270,13,362.87065260000236,,,,,,,,,362.8565808000021,362.87065260000236,362.87065260000236,363.3859040000025,363.9525343000023,m,1.0773548999968625,None,m,m,,,,010,001,2024-11-23_18h21.33.983,Lexical Decision Making,2024.1.5,None,2024-11-23 18h21.50.495612 +0530,
t r e n k,0.0,non-word,z,2,71,271,57,363.96751940000104,,,,,,,,,363.95352860000276,363.96751940000104,363.96751940000104,364.48297860000093,365.1662853000016,z,1.1826537999986613,None,z,z,,,,010,001,2024-11-23_18h21.33.983,Lexical Decision Making,2024.1.5,None,2024-11-23 18h21.50.495612 +0530,
h o p e,1.0,positive,m,2,72,272,46,365.181078900001,,,,,,,,,365.16716720000113,365.181078900001,365.181078900001,365.6962758000009,367.24393150000105,m,2.052430199997616,None,m,m,,,,010,001,2024-11-23_18h21.33.983,Lexical Decision Making,2024.1.5,None,2024-11-23 18h21.50.495612 +0530,
j o y f u l,1.0,positive,m,2,73,273,19,367.2587538000007,,,,,,,,,367.24538329999996,367.2587538000007,367.2587538000007,367.77406490000067,368.8226324000025,m,1.5579509000017424,None,m,m,,,,010,001,2024-11-23_18h21.33.983,Lexical Decision Making,2024.1.5,None,2024-11-23 18h21.50.495612 +0530,
e x c i t e d,1.0,positive,m,2,74,274,10,368.83767790000275,,,,,,,,,368.8235080000013,368.83767790000275,368.83767790000275,369.3366477000018,371.831521600001,m,2.98083029999907,None,m,m,,,,010,001,2024-11-23_18h21.33.983,Lexical Decision Making,2024.1.5,None,2024-11-23 18h21.50.495612 +0530,
r e g r e t,1.0,negative,m,2,75,275,64,371.84621080000215,,,,,,,,,371.8324165000013,371.84621080000215,371.84621080000215,372.36143390000143,378.46299210000143,m,6.611826799999108,None,m,m,,,,010,001,2024-11-23_18h21.33.983,Lexical Decision Making,2024.1.5,None,2024-11-23 18h21.50.495612 +0530,
e x c i t e d,1.0,positive,m,2,76,276,72,378.47797680000076,,,,,,,,,378.4639489000001,378.47797680000076,378.47797680000076,378.99342510000133,381.15562000000136,m,2.6651892000008957,None,m,m,,,,010,001,2024-11-23_18h21.33.983,Lexical Decision Making,2024.1.5,None,2024-11-23 18h21.50.495612 +0530,
s u c c e s s,1.0,positive,m,2,77,277,35,381.1707434000018,,,,,,,,,381.15653960000054,381.1707434000018,381.1707434000018,381.6859703000009,383.74888120000105,m,2.5664256999989448,None,m,m,,,,010,001,2024-11-23_18h21.33.983,Lexical Decision Making,2024.1.5,None,2024-11-23 18h21.50.495612 +0530,
m o u n t a i n,1.0,neutral,m,2,78,278,71,383.76389090000157,,,,,,,,,383.7497621000002,383.76389090000157,383.76389090000157,384.2789260000027,386.80711750000046,m,3.0402715999989596,None,m,m,,,,010,001,2024-11-23_18h21.33.983,Lexical Decision Making,2024.1.5,None,2024-11-23 18h21.50.495612 +0530,
s m a g l e,0.0,non-word,z,2,79,279,53,386.8218837000022,,,,,,,,,386.8079746000003,386.8218837000022,386.8218837000022,387.3372191000017,388.03721159999986,z,1.1982393999969645,None,z,z,,,,010,001,2024-11-23_18h21.33.983,Lexical Decision Making,2024.1.5,None,2024-11-23 18h21.50.495612 +0530,
b o o k,1.0,neutral,m,2,80,280,22,388.05186830000093,,,,,,,,,388.03841230000035,388.05186830000093,388.05186830000093,388.56707820000156,389.1173385000002,m,1.049261200001638,None,m,m,,,,010,001,2024-11-23_18h21.33.983,Lexical Decision Making,2024.1.5,None,2024-11-23 18h21.50.495612 +0530,
c l o c k,1.0,neutral,m,2,81,281,20,389.1324612000026,,,,,,,,,389.11833820000174,389.1324612000026,389.1324612000026,389.64754190000167,389.94828690000213,m,0.800609699999768,None,m,m,,,,010,001,2024-11-23_18h21.33.983,Lexical Decision Making,2024.1.5,None,2024-11-23 18h21.50.495612 +0530,
c l o c k,1.0,neutral,m,2,82,282,48,389.9632291000016,,,,,,,,,389.9492754000021,389.9632291000016,389.9632291000016,390.47896110000147,391.19542770000044,m,1.2240188000032504,None,m,m,,,,010,001,2024-11-23_18h21.33.983,Lexical Decision Making,2024.1.5,None,2024-11-23 18h21.50.495612 +0530,
v i c t o r y,1.0,positive,m,2,83,283,25,391.2101627000011,,,,,,,,,391.19673479999983,391.2101627000011,391.2101627000011,391.70948350000253,393.8218082000021,m,2.594449500000337,None,m,m,,,,010,001,2024-11-23_18h21.33.983,Lexical Decision Making,2024.1.5,None,2024-11-23 18h21.50.495612 +0530,
f e a r f u l,1.0,negative,m,2,84,284,98,393.83694130000003,,,,,,,,,393.82269950000045,393.83694130000003,393.83694130000003,394.35214780000024,396.5644321,m,2.721705200001452,None,m,m,,,,010,001,2024-11-23_18h21.33.983,Lexical Decision Making,2024.1.5,None,2024-11-23 18h21.50.495612 +0530,
b l o r p,0.0,non-word,z,2,85,285,5,396.57939220000117,,,,,,,,,396.56563910000114,396.57939220000117,396.57939220000117,397.07812209999975,398.1104102999998,z,1.522049600000173,None,z,z,,,,010,001,2024-11-23_18h21.33.983,Lexical Decision Making,2024.1.5,None,2024-11-23 18h21.50.495612 +0530,
s m i l e,1.0,positive,m,2,86,286,92,398.12525789999927,,,,,,,,,398.11137620000227,398.12525789999927,398.12525789999927,398.64059110000017,398.6254642999993,m,0.48687879999852157,None,m,m,,,,010,001,2024-11-23_18h21.33.983,Lexical Decision Making,2024.1.5,None,2024-11-23 18h21.50.495612 +0530,
z a r f e t,0.0,non-word,z,2,87,287,31,398.64059110000017,,,,,,,,,398.6264274000023,398.64059110000017,398.64059110000017,399.1557399000012,399.6894683999999,z,1.0465465999986918,None,z,z,,,,010,001,2024-11-23_18h21.33.983,Lexical Decision Making,2024.1.5,None,2024-11-23 18h21.50.495612 +0530,
a n g e r,1.0,negative,m,2,88,288,15,399.7042395000026,,,,,,,,,399.69033409999975,399.7042395000026,399.7042395000026,400.2196670000012,400.20472510000036,m,0.4843136000017694,None,m,m,,,,010,001,2024-11-23_18h21.33.983,Lexical Decision Making,2024.1.5,None,2024-11-23 18h21.50.495612 +0530,
d r o n t,0.0,non-word,z,2,89,289,95,400.2196670000012,,,,,,,,,400.20561830000224,400.2196670000012,400.2196670000012,400.73474519999945,401.5343525999997,z,1.3117610000008426,None,z,z,,,,010,001,2024-11-23_18h21.33.983,Lexical Decision Making,2024.1.5,None,2024-11-23 18h21.50.495612 +0530,
a n g e r,1.0,negative,m,2,90,290,44,401.56494060000114,,,,,,,,,401.53566050000154,401.56494060000114,401.56494060000114,,401.9493781000019,m,0.3743732999973872,None,m,m,,,,010,001,2024-11-23_18h21.33.983,Lexical Decision Making,2024.1.5,None,2024-11-23 18h21.50.495612 +0530,
b o t t l e,1.0,neutral,m,2,91,291,58,401.9639747000001,,,,,,,,,401.9503705999996,401.9639747000001,401.9639747000001,402.47923850000006,403.39493779999975,m,1.4283620999995037,None,m,m,,,,010,001,2024-11-23_18h21.33.983,Lexical Decision Making,2024.1.5,None,2024-11-23 18h21.50.495612 +0530,
g r i e f,1.0,negative,m,2,92,292,62,403.409883100001,,,,,,,,,403.39580150000256,403.409883100001,403.409883100001,403.9252262000009,404.8077979000009,m,1.387058699998306,None,m,m,,,,010,001,2024-11-23_18h21.33.983,Lexical Decision Making,2024.1.5,None,2024-11-23 18h21.50.495612 +0530,
a c h i e v e m e n t,1.0,positive,m,2,93,293,27,404.82254260000263,,,,,,,,,404.8089070999995,404.82254260000263,404.82254260000263,405.3382025000028,406.22065049999946,m,1.3925875999993877,None,m,m,,,,010,001,2024-11-23_18h21.33.983,Lexical Decision Making,2024.1.5,None,2024-11-23 18h21.50.495612 +0530,
g r i n d l e,0.0,non-word,z,2,94,294,17,406.2355757000005,,,,,,,,,406.22153420000177,406.2355757000005,406.2355757000005,406.7508029000019,408.2321539000004,z,1.9948984000002383,None,z,z,,,,010,001,2024-11-23_18h21.33.983,Lexical Decision Making,2024.1.5,None,2024-11-23 18h21.50.495612 +0530,
d r e n k,0.0,non-word,z,2,95,295,4,408.24674770000274,,,,,,,,,408.23323170000003,408.24674770000274,408.24674770000274,408.76192730000184,408.74732850000146,m,0.49072589999923366,None,m,z,,,,010,001,2024-11-23_18h21.33.983,Lexical Decision Making,2024.1.5,None,2024-11-23 18h21.50.495612 +0530,
t w o r i k,0.0,non-word,z,2,96,296,93,408.76192730000184,,,,,,,,,408.7484179999992,408.76192730000184,408.76192730000184,409.27724520000265,413.3015809999997,z,4.537930999998935,None,z,z,,,,010,001,2024-11-23_18h21.33.983,Lexical Decision Making,2024.1.5,None,2024-11-23 18h21.50.495612 +0530,
t r a i n,1.0,neutral,m,2,97,297,40,413.31618570000137,,,,,,,,,413.30258780000077,413.31618570000137,413.31618570000137,413.83152130000235,413.86651370000254,m,0.5410080000001471,None,m,m,,,,010,001,2024-11-23_18h21.33.983,Lexical Decision Making,2024.1.5,None,2024-11-23 18h21.50.495612 +0530,
c a r p e t,1.0,neutral,m,2,98,298,85,413.88141560000076,,,,,,,,,413.8678441000011,413.88141560000076,413.88141560000076,414.3969797999998,414.7643055000008,m,0.880643800002872,None,m,m,,,,010,001,2024-11-23_18h21.33.983,Lexical Decision Making,2024.1.5,None,2024-11-23 18h21.50.495612 +0530,
d r e a m,1.0,positive,m,2,99,299,9,414.7790425000021,,,,,,,,,414.7651979000002,414.7790425000021,414.7790425000021,415.2940959000007,416.1104285000001,m,1.3224296000007598,None,m,m,,,,010,001,2024-11-23_18h21.33.983,Lexical Decision Making,2024.1.5,None,2024-11-23 18h21.50.495612 +0530,
d e s p a i r,1.0,negative,m,3,0,300,56,416.12534869999945,,,,,,,,,416.1113320000004,416.12534869999945,416.12534869999945,416.6404251000022,417.5227416000016,m,1.380544399999053,None,m,m,,,,010,001,2024-11-23_18h21.33.983,Lexical Decision Making,2024.1.5,None,2024-11-23 18h21.50.495612 +0530,
p e a c e,1.0,positive,m,3,1,301,89,417.53800989999945,,,,,,,,,417.5236493000011,417.53800989999945,417.53800989999945,418.05339670000103,418.95232640000177,m,1.408401299999241,None,m,m,,,,010,001,2024-11-23_18h21.33.983,Lexical Decision Making,2024.1.5,None,2024-11-23 18h21.50.495612 +0530,
a p p l e,1.0,neutral,m,3,2,302,32,418.96761680000054,,,,,,,,,418.95319720000043,418.96761680000054,418.96761680000054,419.4826656000005,422.9914817000026,m,4.011928899999475,None,m,m,,,,010,001,2024-11-23_18h21.33.983,Lexical Decision Making,2024.1.5,None,2024-11-23 18h21.50.495612 +0530,
c a b l e,1.0,neutral,m,3,3,303,78,423.0063831000007,,,,,,,,,422.99234609999985,423.0063831000007,423.0063831000007,423.52166520000173,424.7202337000017,m,1.7028611000023375,None,m,m,,,,010,001,2024-11-23_18h21.33.983,Lexical Decision Making,2024.1.5,None,2024-11-23 18h21.50.495612 +0530,
g r i e f,1.0,negative,m,3,4,304,50,424.73502270000245,,,,,,,,,424.7211266000013,424.73502270000245,424.73502270000245,425.2502994000024,426.0329593000024,m,1.291940799997974,None,m,m,,,,010,001,2024-11-23_18h21.33.983,Lexical Decision Making,2024.1.5,None,2024-11-23 18h21.50.495612 +0530,
s a d n e s s,1.0,negative,m,3,5,305,65,426.0481800000016,,,,,,,,,426.0339668000015,426.0481800000016,426.0481800000016,426.5634420000024,428.2608317000013,m,2.199785700002394,None,m,m,,,,010,001,2024-11-23_18h21.33.983,Lexical Decision Making,2024.1.5,None,2024-11-23 18h21.50.495612 +0530,
c h e e r,1.0,positive,m,3,6,306,63,428.27536619999955,,,,,,,,,428.26169540000046,428.27536619999955,428.27536619999955,428.7905678999996,430.6373483999996,m,2.3486967999997432,None,m,m,,,,010,001,2024-11-23_18h21.33.983,Lexical Decision Making,2024.1.5,None,2024-11-23 18h21.50.495612 +0530,
d e l i g h t,1.0,positive,m,3,7,307,39,430.65213850000146,,,,,,,,,430.63821180000014,430.65213850000146,430.65213850000146,431.1674755999993,432.8477989000021,m,2.1908736000004865,None,m,m,,,,010,001,2024-11-23_18h21.33.983,Lexical Decision Making,2024.1.5,None,2024-11-23 18h21.50.495612 +0530,
s m o r n,0.0,non-word,z,3,8,308,51,432.86282140000185,,,,,,,,,432.8487114000018,432.86282140000185,432.86282140000185,433.37818230000266,434.26104640000267,z,1.3940452999995614,None,z,z,,,,010,001,2024-11-23_18h21.33.983,Lexical Decision Making,2024.1.5,None,2024-11-23 18h21.50.495612 +0530,
l o m e b,0.0,non-word,z,3,9,309,90,434.27551440000025,,,,,,,,,434.2619125000019,434.27551440000025,434.27551440000025,434.790842800001,436.6381091000003,z,2.3594518000027165,None,z,z,,,,010,001,2024-11-23_18h21.33.983,Lexical Decision Making,2024.1.5,None,2024-11-23 18h21.50.495612 +0530,
d r e n k,0.0,non-word,z,3,10,310,4,436.6526384000026,,,,,,,,,436.63912920000075,436.6526384000026,436.6526384000026,437.16771970000264,440.52706150000085,z,3.8641721999993024,None,z,z,,,,010,001,2024-11-23_18h21.33.983,Lexical Decision Making,2024.1.5,None,2024-11-23 18h21.50.495612 +0530,
w i n d o w,1.0,neutral,m,3,11,311,80,440.5418286000022,,,,,,,,,440.5279498000018,440.5418286000022,440.5418286000022,441.05715770000097,441.8733701000019,m,1.3209492999994836,None,m,m,,,,010,001,2024-11-23_18h21.33.983,Lexical Decision Making,2024.1.5,None,2024-11-23 18h21.50.495612 +0530,
t a b l e,1.0,neutral,m,3,12,312,6,441.8881309000026,,,,,,,,,441.8742424000011,441.8881309000026,441.8881309000026,442.4033049999998,442.53838019999966,m,0.6417561000016576,None,m,m,,,,010,001,2024-11-23_18h21.33.983,Lexical Decision Making,2024.1.5,None,2024-11-23 18h21.50.495612 +0530,
s o r r o w,1.0,negative,m,3,13,313,33,442.5530652000016,,,,,,,,,442.53927020000265,442.5530652000016,442.5530652000016,443.0684818000009,443.3692054999992,m,0.7985575999991852,None,m,m,,,,010,001,2024-11-23_18h21.33.983,Lexical Decision Making,2024.1.5,None,2024-11-23 18h21.50.495612 +0530,
h a t e,1.0,negative,m,3,14,314,74,443.38400620000175,,,,,,,,,443.3701226000012,443.38400620000175,443.38400620000175,443.8826878,444.61558010000226,m,1.220897100000002,None,m,m,,,,010,001,2024-11-23_18h21.33.983,Lexical Decision Making,2024.1.5,None,2024-11-23 18h21.50.495612 +0530,
t r e n k,0.0,non-word,z,3,15,315,57,444.6305869000025,,,,,,,,,444.61652139999933,444.6305869000025,444.6305869000025,445.1460530000004,449.66872630000216,z,5.026494800000364,None,z,z,,,,010,001,2024-11-23_18h21.33.983,Lexical Decision Making,2024.1.5,None,2024-11-23 18h21.50.495612 +0530,
d r i n t,0.0,non-word,z,3,16,316,23,449.6833743999996,,,,,,,,,449.66961100000117,449.6833743999996,449.6833743999996,450.1987282000009,450.1839914000011,m,0.4971408000019437,None,m,z,,,,010,001,2024-11-23_18h21.33.983,Lexical Decision Making,2024.1.5,None,2024-11-23 18h21.50.495612 +0530,
c o m f o r t,1.0,positive,m,3,17,317,59,450.1987282000009,,,,,,,,,450.1848583000028,450.1987282000009,450.1987282000009,450.71410390000165,451.4636023000021,m,1.253979100001743,None,m,m,,,,010,001,2024-11-23_18h21.33.983,Lexical Decision Making,2024.1.5,None,2024-11-23 18h21.50.495612 +0530,
c r y,1.0,negative,m,3,18,318,61,451.47859489999973,,,,,,,,,451.4644915000026,451.47859489999973,451.47859489999973,451.9939469000019,452.9933646000027,m,1.5127571000011812,None,m,m,,,,010,001,2024-11-23_18h21.33.983,Lexical Decision Making,2024.1.5,None,2024-11-23 18h21.50.495612 +0530,
f e a r f u l,1.0,negative,m,3,19,319,98,453.0077827000023,,,,,,,,,452.9943588999995,453.0077827000023,453.0077827000023,453.52299850000054,454.60481150000123,m,1.5902157000018633,None,m,m,,,,010,001,2024-11-23_18h21.33.983,Lexical Decision Making,2024.1.5,None,2024-11-23 18h21.50.495612 +0530,
b l o r p,0.0,non-word,z,3,20,320,60,454.6199645000015,,,,,,,,,454.60568090000015,454.6199645000015,454.6199645000015,455.1354449999999,458.8602520000022,z,4.2260368000024755,None,z,z,,,,010,001,2024-11-23_18h21.33.983,Lexical Decision Making,2024.1.5,None,2024-11-23 18h21.50.495612 +0530,
a n g e r,1.0,negative,m,3,21,321,15,458.87587780000104,,,,,,,,,458.8611665000026,458.87587780000104,458.87587780000104,459.39057070000126,459.39223499999935,m,0.5020903000004182,None,m,m,,,,010,001,2024-11-23_18h21.33.983,Lexical Decision Making,2024.1.5,None,2024-11-23 18h21.50.495612 +0530,
e x c i t e d,1.0,positive,m,3,22,322,10,459.4071604000019,,,,,,,,,459.3931252000002,459.4071604000019,459.4071604000019,459.92215390000274,460.57189819999985,m,1.1523403999999573,None,m,m,,,,010,001,2024-11-23_18h21.33.983,Lexical Decision Making,2024.1.5,None,2024-11-23 18h21.50.495612 +0530,
g r i n d l e,0.0,non-word,z,3,23,323,54,460.5870553999994,,,,,,,,,460.57276719999936,460.5870553999994,460.5870553999994,461.10237020000204,462.1847559000016,m,1.5947997000002943,None,m,z,,,,010,001,2024-11-23_18h21.33.983,Lexical Decision Making,2024.1.5,None,2024-11-23 18h21.50.495612 +0530,
g r a t i t u d e,1.0,positive,m,3,24,324,41,462.1993287000005,,,,,,,,,462.1857411000019,462.1993287000005,462.1993287000005,462.7145203,465.0430785000026,m,2.829231700001401,None,m,m,,,,010,001,2024-11-23_18h21.33.983,Lexical Decision Making,2024.1.5,None,2024-11-23 18h21.50.495612 +0530,
c h i n d l e,0.0,non-word,z,3,25,325,8,465.05809880000015,,,,,,,,,465.0439512000012,465.05809880000015,465.05809880000015,465.573507000001,467.07117540000036,z,2.009152200000244,None,z,z,,,,010,001,2024-11-23_18h21.33.983,Lexical Decision Making,2024.1.5,None,2024-11-23 18h21.50.495612 +0530,
v o b l i t,0.0,non-word,z,3,26,326,38,467.08594930000254,,,,,,,,,467.07205800000156,467.08594930000254,467.08594930000254,,467.53646520000257,m,0.4338809000000765,None,m,z,,,,010,001,2024-11-23_18h21.33.983,Lexical Decision Making,2024.1.5,None,2024-11-23 18h21.50.495612 +0530,
g r u f f i l,0.0,non-word,z,3,27,327,49,467.5512302999996,,,,,,,,,467.5379885000002,467.5512302999996,467.5512302999996,468.06672000000253,469.66381530000217,z,2.1086868999991566,None,z,z,,,,010,001,2024-11-23_18h21.33.983,Lexical Decision Making,2024.1.5,None,2024-11-23 18h21.50.495612 +0530,
l o s s,1.0,negative,m,3,28,328,29,469.67882590000227,,,,,,,,,469.6647559000012,469.67882590000227,469.67882590000227,470.1942651999998,471.2430053999997,m,1.5501693000005616,None,m,m,,,,010,001,2024-11-23_18h21.33.983,Lexical Decision Making,2024.1.5,None,2024-11-23 18h21.50.495612 +0530,
m u r k l e,0.0,non-word,z,3,29,329,66,471.25832079999964,,,,,,,,,471.2438744000028,471.25832079999964,471.25832079999964,471.7732032999993,474.4178047000023,z,3.1552046000033442,None,z,z,,,,010,001,2024-11-23_18h21.33.983,Lexical Decision Making,2024.1.5,None,2024-11-23 18h21.50.495612 +0530,
c l o c k,1.0,neutral,m,3,30,330,20,474.4327966000019,,,,,,,,,474.4187223000008,474.4327966000019,474.4327966000019,474.94774770000004,475.03279079999993,m,0.5847900999979174,None,m,m,,,,010,001,2024-11-23_18h21.33.983,Lexical Decision Making,2024.1.5,None,2024-11-23 18h21.50.495612 +0530,
s t o n e,1.0,neutral,m,3,31,331,13,475.0474964000023,,,,,,,,,475.0336962000001,475.0474964000023,475.0474964000023,475.56282620000275,475.8639866000012,m,0.8129955999975209,None,m,m,,,,010,001,2024-11-23_18h21.33.983,Lexical Decision Making,2024.1.5,None,2024-11-23 18h21.50.495612 +0530,
r e g r e t,1.0,negative,m,3,32,332,64,475.87877610000214,,,,,,,,,475.8652335000006,475.87877610000214,475.87877610000214,476.39383310000267,477.2103324000018,m,1.3296941999979026,None,m,m,,,,010,001,2024-11-23_18h21.33.983,Lexical Decision Making,2024.1.5,None,2024-11-23 18h21.50.495612 +0530,
c a r p e t,1.0,neutral,m,3,33,333,85,477.2249147000002,,,,,,,,,477.2112324000009,477.2249147000002,477.2249147000002,477.740150900001,479.05493480000223,m,1.8150530999992043,None,m,m,,,,010,001,2024-11-23_18h21.33.983,Lexical Decision Making,2024.1.5,None,2024-11-23 18h21.50.495612 +0530,
c e l e b r a t i o n,1.0,positive,m,3,34,334,75,479.06994060000216,,,,,,,,,479.0558271000009,479.06994060000216,479.06994060000216,479.5853169000002,480.5674930999994,m,1.492212199998903,None,m,m,,,,010,001,2024-11-23_18h21.33.983,Lexical Decision Making,2024.1.5,None,2024-11-23 18h21.50.495612 +0530,
s a d n e s s,1.0,negative,m,3,35,335,88,480.5831285000022,,,,,,,,,480.5684202000011,480.5831285000022,480.5831285000022,481.09799150000254,482.66183660000024,m,2.0763134000007994,None,m,m,,,,010,001,2024-11-23_18h21.33.983,Lexical Decision Making,2024.1.5,None,2024-11-23 18h21.50.495612 +0530,
c h e e r f u l,1.0,positive,m,3,36,336,43,482.67659579999963,,,,,,,,,482.6631156000003,482.67659579999963,482.67659579999963,483.19198210000104,484.5068754999993,m,1.822132800003601,None,m,m,,,,010,001,2024-11-23_18h21.33.983,Lexical Decision Making,2024.1.5,None,2024-11-23 18h21.50.495612 +0530,
a c h i e v e m e n t,1.0,positive,m,3,37,337,27,484.52174469999954,,,,,,,,,484.50779500000135,484.52174469999954,484.52174469999954,485.03714630000104,486.2852378000025,m,1.7603653999976814,None,m,m,,,,010,001,2024-11-23_18h21.33.983,Lexical Decision Making,2024.1.5,None,2024-11-23 18h21.50.495612 +0530,
b l o r p,0.0,non-word,z,3,38,338,5,486.3002097000026,,,,,,,,,486.28614590000143,486.3002097000026,486.3002097000026,486.8154323000017,488.8116136999997,z,2.504915699999401,None,z,z,,,,010,001,2024-11-23_18h21.33.983,Lexical Decision Making,2024.1.5,None,2024-11-23 18h21.50.495612 +0530,
q u i b l e n,0.0,non-word,z,3,39,339,91,488.826531900002,,,,,,,,,488.8126813000017,488.826531900002,488.826531900002,489.3419587000026,489.3937059000018,m,0.5639856000016152,None,m,z,,,,010,001,2024-11-23_18h21.33.983,Lexical Decision Making,2024.1.5,None,2024-11-23 18h21.50.495612 +0530,
