Stimulus,IsWord,Valence,CorrectResponse,trials.thisRepN,trials.thisTrialN,trials.thisN,trials.thisIndex,thisRow.t,notes,instructions.started,instructionsText.started,key_resp_2.started,instructions.stopped,key_resp_2.keys,key_resp_2.rt,key_resp_2.duration,trial.started,text.started,key_resp.started,text.stopped,trial.stopped,key_resp.keys,key_resp.rt,key_resp.duration,ParticipantResponse,CorrectResponse,End.started,text_z.started,End.stopped,participant,session,date,expName,psychopyVersion,frameRate,expStart,
,,,,,,,,,,0.017579900013515726,0.0351888000004692,0.0351888000004692,0.8509862000064459,space,0.7183871000015642,None,,,,,,,,,,,,,,009,001,2024-11-24_16h24.31.303,Lexical Decision Making,2024.1.5,None,2024-11-24 16h24.45.083390 +0530,
l o m e b,0.0,non-word,z,0,0,0,90,0.8982457000092836,,,,,,,,,0.87260210000386,0.8982457000092836,0.8982457000092836,1.414443100002245,2.428563400011626,z,1.5278629999957047,None,z,z,,,,009,001,2024-11-24_16h24.31.303,Lexical Decision Making,2024.1.5,None,2024-11-24 16h24.45.083390 +0530,
c a b l e,1.0,neutral,m,0,1,1,78,2.444211500012898,,,,,,,,,2.4298379000101704,2.444211500012898,2.444211500012898,2.944155100005446,3.211121500004083,m,0.7629504000069574,None,m,m,,,,009,001,2024-11-24_16h24.31.303,Lexical Decision Making,2024.1.5,None,2024-11-24 16h24.45.083390 +0530,
m o u n t a i n,1.0,neutral,m,0,2,2,71,3.2264070000092033,,,,,,,,,3.2116600000008475,3.2264070000092033,3.2264070000092033,3.741646500013303,3.8758993000083137,m,0.6436943000007886,None,m,m,,,,009,001,2024-11-24_16h24.31.303,Lexical Decision Making,2024.1.5,None,2024-11-24 16h24.45.083390 +0530,
c a r p e t,1.0,neutral,m,0,3,3,85,3.891649299999699,,,,,,,,,3.876604300006875,3.891649299999699,3.891649299999699,4.390578600010485,4.524640600007842,m,0.6315467000094941,None,m,m,,,,009,001,2024-11-24_16h24.31.303,Lexical Decision Making,2024.1.5,None,2024-11-24 16h24.45.083390 +0530,
s t o n e,1.0,neutral,m,0,4,4,13,4.539838500000769,,,,,,,,,4.525203500001226,4.539838500000769,4.539838500000769,5.05480830000306,5.172508600007859,m,0.627534300001571,None,m,m,,,,009,001,2024-11-24_16h24.31.303,Lexical Decision Making,2024.1.5,None,2024-11-24 16h24.45.083390 +0530,
f e a r f u l,1.0,negative,m,0,5,5,2,5.187279000005219,,,,,,,,,5.173049800010631,5.187279000005219,5.187279000005219,5.686754500013194,6.3023673000134295,m,1.1121207999967737,None,m,m,,,,009,001,2024-11-24_16h24.31.303,Lexical Decision Making,2024.1.5,None,2024-11-24 16h24.45.083390 +0530,
q u i b l e n,0.0,non-word,z,0,6,6,91,6.317392200013273,,,,,,,,,6.303021700005047,6.317392200013273,6.317392200013273,6.817033800005447,7.400128400011454,z,1.0794331000070088,None,z,z,,,,009,001,2024-11-24_16h24.31.303,Lexical Decision Making,2024.1.5,None,2024-11-24 16h24.45.083390 +0530,
t w o r i k,0.0,non-word,z,0,7,7,93,7.415894200006733,,,,,,,,,7.400678300007712,7.415894200006733,7.415894200006733,7.9305548000120325,8.014806800012593,z,0.5817913999926532,None,z,z,,,,009,001,2024-11-24_16h24.31.303,Lexical Decision Making,2024.1.5,None,2024-11-24 16h24.45.083390 +0530,
v a b l i n,0.0,non-word,z,0,8,8,1,8.029299600006198,,,,,,,,,8.015332800001488,8.029299600006198,8.029299600006198,8.52921600000991,9.078649400005816,z,1.042775400012033,None,z,z,,,,009,001,2024-11-24_16h24.31.303,Lexical Decision Making,2024.1.5,None,2024-11-24 16h24.45.083390 +0530,
c e l e b r a t i o n,1.0,positive,m,0,9,9,75,9.093619300008868,,,,,,,,,9.079177500010701,9.093619300008868,9.093619300008868,9.60987150001165,10.176070800007437,m,1.0659563999943202,None,m,m,,,,009,001,2024-11-24_16h24.31.303,Lexical Decision Making,2024.1.5,None,2024-11-24 16h24.45.083390 +0530,
w a r,1.0,negative,m,0,10,10,67,10.19114680000348,,,,,,,,,10.176731400002609,10.19114680000348,10.19114680000348,10.68972360000771,11.006273700011661,m,0.8097761000099126,None,m,m,,,,009,001,2024-11-24_16h24.31.303,Lexical Decision Making,2024.1.5,None,2024-11-24 16h24.45.083390 +0530,
s m a g l e,0.0,non-word,z,0,11,11,53,11.021718000003602,,,,,,,,,11.006815300002927,11.021718000003602,11.021718000003602,11.537195700002485,11.903987400000915,z,0.8651057000097353,None,z,z,,,,009,001,2024-11-24_16h24.31.303,Lexical Decision Making,2024.1.5,None,2024-11-24 16h24.45.083390 +0530,
p l a r k,0.0,non-word,z,0,12,12,45,11.920093800014001,,,,,,,,,11.904512799999793,11.920093800014001,11.920093800014001,12.43508720000682,12.784860900006606,z,0.862261899994337,None,z,z,,,,009,001,2024-11-24_16h24.31.303,Lexical Decision Making,2024.1.5,None,2024-11-24 16h24.45.083390 +0530,
k i n d n e s s,1.0,positive,m,0,13,13,82,12.800588100013556,,,,,,,,,12.785452399999485,12.800588100013556,12.800588100013556,13.315293300009216,14.098292800001218,m,1.2882508999900892,None,m,m,,,,009,001,2024-11-24_16h24.31.303,Lexical Decision Making,2024.1.5,None,2024-11-24 16h24.45.083390 +0530,
a n g e r,1.0,negative,m,0,14,14,44,14.113517400008277,,,,,,,,,14.098828900008812,14.113517400008277,14.113517400008277,14.612615100006224,15.112201800002367,m,0.9812303999933647,None,m,m,,,,009,001,2024-11-24_16h24.31.303,Lexical Decision Making,2024.1.5,None,2024-11-24 16h24.45.083390 +0530,
s a d n e s s,1.0,negative,m,0,15,15,65,15.127918800004409,,,,,,,,,15.112746900005732,15.127918800004409,15.127918800004409,15.642986800012295,15.909756300010486,m,0.7703767999919364,None,m,m,,,,009,001,2024-11-24_16h24.31.303,Lexical Decision Making,2024.1.5,None,2024-11-24 16h24.45.083390 +0530,
s u c c e s s,1.0,positive,m,0,16,16,35,15.924675000002026,,,,,,,,,15.910298400005559,15.924675000002026,15.924675000002026,16.423886200005654,16.724097500002244,m,0.7866250000079162,None,m,m,,,,009,001,2024-11-24_16h24.31.303,Lexical Decision Making,2024.1.5,None,2024-11-24 16h24.45.083390 +0530,
e x c i t e d,1.0,positive,m,0,17,17,72,16.73937890000525,,,,,,,,,16.72463609999977,16.73937890000525,16.73937890000525,17.238206400012132,17.70481340000697,m,0.9595979000005173,None,m,m,,,,009,001,2024-11-24_16h24.31.303,Lexical Decision Making,2024.1.5,None,2024-11-24 16h24.45.083390 +0530,
p e a c e,1.0,positive,m,0,18,18,89,17.720343000008143,,,,,,,,,17.70536260001245,17.720343000008143,17.720343000008143,18.235691600013524,18.585011900009704,m,0.856196299995645,None,m,m,,,,009,001,2024-11-24_16h24.31.303,Lexical Decision Making,2024.1.5,None,2024-11-24 16h24.45.083390 +0530,
g r u f f i l,0.0,non-word,z,0,19,19,49,18.601390700001502,,,,,,,,,18.585559300001478,18.601390700001502,18.601390700001502,19.116585200012196,19.550384300004225,z,0.9454981000017142,None,z,z,,,,009,001,2024-11-24_16h24.31.303,Lexical Decision Making,2024.1.5,None,2024-11-24 16h24.45.083390 +0530,
d r i n t,0.0,non-word,z,0,20,20,23,19.56491480000841,,,,,,,,,19.550906300006318,19.56491480000841,19.56491480000841,20.0636710000108,20.48021820001304,z,0.9002646000008099,None,z,z,,,,009,001,2024-11-24_16h24.31.303,Lexical Decision Making,2024.1.5,None,2024-11-24 16h24.45.083390 +0530,
c o m f o r t,1.0,positive,m,0,21,21,59,20.495782700003474,,,,,,,,,20.480988400013302,20.495782700003474,20.495782700003474,21.011277000012342,21.510867300006794,m,1.0061461000004783,None,m,m,,,,009,001,2024-11-24_16h24.31.303,Lexical Decision Making,2024.1.5,None,2024-11-24 16h24.45.083390 +0530,
c a l e n d a r,1.0,neutral,m,0,22,22,86,21.52636530000018,,,,,,,,,21.51140280000982,21.52636530000018,21.52636530000018,22.025108000001637,22.40955660000327,m,0.8707958000013605,None,m,m,,,,009,001,2024-11-24_16h24.31.303,Lexical Decision Making,2024.1.5,None,2024-11-24 16h24.45.083390 +0530,
s u n s h i n e,1.0,positive,m,0,23,23,30,22.423945500006084,,,,,,,,,22.410232800000813,22.423945500006084,22.423945500006084,22.939241500003845,23.290593600002467,m,0.8541021999990335,None,m,m,,,,009,001,2024-11-24_16h24.31.303,Lexical Decision Making,2024.1.5,None,2024-11-24 16h24.45.083390 +0530,
b o o k,1.0,neutral,m,0,24,24,22,23.305191100007505,,,,,,,,,23.291360400005942,23.305191100007505,23.305191100007505,23.80355050000071,24.170285300002433,m,0.861028700004681,None,m,m,,,,009,001,2024-11-24_16h24.31.303,Lexical Decision Making,2024.1.5,None,2024-11-24 16h24.45.083390 +0530,
a p p l e,1.0,neutral,m,0,25,25,32,24.186270700010937,,,,,,,,,24.17082000001392,24.186270700010937,24.186270700010937,24.70142380001198,25.93303690000903,m,1.7381320999993477,None,m,m,,,,009,001,2024-11-24_16h24.31.303,Lexical Decision Making,2024.1.5,None,2024-11-24 16h24.45.083390 +0530,
m u r k l e,0.0,non-word,z,0,26,26,66,25.948454400000628,,,,,,,,,25.933583100006217,25.948454400000628,25.948454400000628,26.462701300013578,26.580521400013822,z,0.6264355000021169,None,z,z,,,,009,001,2024-11-24_16h24.31.303,Lexical Decision Making,2024.1.5,None,2024-11-24 16h24.45.083390 +0530,
p e n c i l,1.0,neutral,m,0,27,27,24,26.596189100004267,,,,,,,,,26.58106240000052,26.596189100004267,26.596189100004267,27.11155630000576,27.262016400010907,m,0.6484402999922168,None,m,m,,,,009,001,2024-11-24_16h24.31.303,Lexical Decision Making,2024.1.5,None,2024-11-24 16h24.45.083390 +0530,
w i n d o w,1.0,neutral,m,0,28,28,68,27.277498900002684,,,,,,,,,27.262912200007122,27.277498900002684,27.277498900002684,27.792932000011206,27.959931200006395,m,0.6775865999952657,None,m,m,,,,009,001,2024-11-24_16h24.31.303,Lexical Decision Making,2024.1.5,None,2024-11-24 16h24.45.083390 +0530,
l o s s,1.0,negative,m,0,29,29,29,27.97563600000285,,,,,,,,,27.960461800001212,27.97563600000285,27.97563600000285,28.491282700008014,29.207286500008195,m,1.215853200003039,None,m,m,,,,009,001,2024-11-24_16h24.31.303,Lexical Decision Making,2024.1.5,None,2024-11-24 16h24.45.083390 +0530,
h o p e,1.0,positive,m,0,30,30,46,29.222219800009043,,,,,,,,,29.207824500001152,29.222219800009043,29.222219800009043,29.738214299999527,29.805169500003103,m,0.5743383999943035,None,m,m,,,,009,001,2024-11-24_16h24.31.303,Lexical Decision Making,2024.1.5,None,2024-11-24 16h24.45.083390 +0530,
p l a r k,0.0,non-word,z,0,31,31,16,29.820982100005494,,,,,,,,,29.80569400000968,29.820982100005494,29.820982100005494,30.33615020000434,30.45355110001401,z,0.6151437000080477,None,z,z,,,,009,001,2024-11-24_16h24.31.303,Lexical Decision Making,2024.1.5,None,2024-11-24 16h24.45.083390 +0530,
b r a s k,0.0,non-word,z,0,32,32,79,30.469092700004694,,,,,,,,,30.45427760000166,30.469092700004694,30.469092700004694,30.983551100012846,31.201361400002497,z,0.7220823999959975,None,z,z,,,,009,001,2024-11-24_16h24.31.303,Lexical Decision Making,2024.1.5,None,2024-11-24 16h24.45.083390 +0530,
c r y,1.0,negative,m,0,33,33,61,31.217041800002335,,,,,,,,,31.201888300012797,31.217041800002335,31.217041800002335,31.715092100013862,31.98270930000581,m,0.756089599992265,None,m,m,,,,009,001,2024-11-24_16h24.31.303,Lexical Decision Making,2024.1.5,None,2024-11-24 16h24.45.083390 +0530,
g r i e f,1.0,negative,m,0,34,34,62,31.9982708000025,,,,,,,,,31.98330750000605,31.9982708000025,31.9982708000025,32.4966795000073,32.730271800013725,m,0.7239128999935929,None,m,m,,,,009,001,2024-11-24_16h24.31.303,Lexical Decision Making,2024.1.5,None,2024-11-24 16h24.45.083390 +0530,
g r i e f,1.0,negative,m,0,35,35,50,32.74596460000612,,,,,,,,,32.73079570000118,32.74596460000612,32.74596460000612,33.26112700000522,33.51179120001325,m,0.750327899993863,None,m,m,,,,009,001,2024-11-24_16h24.31.303,Lexical Decision Making,2024.1.5,None,2024-11-24 16h24.45.083390 +0530,
s o r r o w,1.0,negative,m,0,36,36,33,33.52726950000215,,,,,,,,,33.512312000006204,33.52726950000215,33.52726950000215,34.04261240000778,34.30915650000679,m,0.7677433999924688,None,m,m,,,,009,001,2024-11-24_16h24.31.303,Lexical Decision Making,2024.1.5,None,2024-11-24 16h24.45.083390 +0530,
s m i l e,1.0,positive,m,0,37,37,92,34.324874300000374,,,,,,,,,34.30968240000948,34.324874300000374,34.324874300000374,34.839847500014,35.14099490000808,m,0.8146889999916311,None,m,m,,,,009,001,2024-11-24_16h24.31.303,Lexical Decision Making,2024.1.5,None,2024-11-24 16h24.45.083390 +0530,
c l i b b e t,0.0,non-word,z,0,38,38,12,35.15542410001217,,,,,,,,,35.1415255000029,35.15542410001217,35.15542410001217,35.6551182000112,35.822535700004664,z,0.6581203999958234,None,z,z,,,,009,001,2024-11-24_16h24.31.303,Lexical Decision Making,2024.1.5,None,2024-11-24 16h24.45.083390 +0530,
c r i t i c i s m,1.0,negative,m,0,39,39,26,35.837806800002,,,,,,,,,35.82314740000584,35.837806800002,35.837806800002,36.352741300011985,36.95233330001065,z,1.1076101000071503,None,z,m,,,,009,001,2024-11-24_16h24.31.303,Lexical Decision Making,2024.1.5,None,2024-11-24 16h24.45.083390 +0530,
w i n d o w,1.0,neutral,m,0,40,40,80,36.967115200008266,,,,,,,,,36.95286630000919,36.967115200008266,36.967115200008266,37.4666331000044,38.730945600007544,m,1.7544191999913892,None,m,m,,,,009,001,2024-11-24_16h24.31.303,Lexical Decision Making,2024.1.5,None,2024-11-24 16h24.45.083390 +0530,
l a m p,1.0,neutral,m,0,41,41,18,38.74623660001089,,,,,,,,,38.73161040000559,38.74623660001089,38.74623660001089,39.261360400007106,39.66139280000061,m,0.9059349999879487,None,m,m,,,,009,001,2024-11-24_16h24.31.303,Lexical Decision Making,2024.1.5,None,2024-11-24 16h24.45.083390 +0530,
g r i n d l e,0.0,non-word,z,0,42,42,54,39.6770181000029,,,,,,,,,39.661935500000254,39.6770181000029,39.6770181000029,40.19224320001376,40.40936370000418,z,0.7270044000033522,None,z,z,,,,009,001,2024-11-24_16h24.31.303,Lexical Decision Making,2024.1.5,None,2024-11-24 16h24.45.083390 +0530,
p l a n e t,1.0,neutral,m,0,43,43,47,40.425033600011375,,,,,,,,,40.40989750000881,40.425033600011375,40.425033600011375,40.940216900009545,41.65613710001344,m,1.2150071999931242,None,m,m,,,,009,001,2024-11-24_16h24.31.303,Lexical Decision Making,2024.1.5,None,2024-11-24 16h24.45.083390 +0530,
d r e a m,1.0,positive,m,0,44,44,9,41.67162380000809,,,,,,,,,41.65705430001253,41.67162380000809,41.67162380000809,42.18629670000519,42.270941300012055,m,0.5981367000058526,None,m,m,,,,009,001,2024-11-24_16h24.31.303,Lexical Decision Making,2024.1.5,None,2024-11-24 16h24.45.083390 +0530,
b l o r p,0.0,non-word,z,0,45,45,84,42.285883700009435,,,,,,,,,42.271648400012054,42.285883700009435,42.285883700009435,42.78563779999968,44.11575460000313,z,1.813901799992891,None,z,z,,,,009,001,2024-11-24_16h24.31.303,Lexical Decision Making,2024.1.5,None,2024-11-24 16h24.45.083390 +0530,
j o y f u l,1.0,positive,m,0,46,46,19,44.130475000012666,,,,,,,,,44.116296700012754,44.130475000012666,44.130475000012666,44.629948000001605,44.78037680000125,m,0.6353804999962449,None,m,m,,,,009,001,2024-11-24_16h24.31.303,Lexical Decision Making,2024.1.5,None,2024-11-24 16h24.45.083390 +0530,
r e g r e t,1.0,negative,m,0,47,47,64,44.797308200009866,,,,,,,,,44.78090690000681,44.797308200009866,44.797308200009866,45.31172260000312,45.41257610000321,m,0.5990102999930969,None,m,m,,,,009,001,2024-11-24_16h24.31.303,Lexical Decision Making,2024.1.5,None,2024-11-24 16h24.45.083390 +0530,
c l o c k,1.0,neutral,m,0,48,48,48,45.4279217000003,,,,,,,,,45.41310350000276,45.4279217000003,45.4279217000003,45.943306400004076,45.92784530000063,m,0.48545070001273416,None,m,m,,,,009,001,2024-11-24_16h24.31.303,Lexical Decision Making,2024.1.5,None,2024-11-24 16h24.45.083390 +0530,
c h a i r,1.0,neutral,m,0,49,49,7,45.943306400004076,,,,,,,,,45.928546200011624,45.943306400004076,45.943306400004076,46.45818250000593,46.725370900006965,m,0.7773454000125639,None,m,m,,,,009,001,2024-11-24_16h24.31.303,Lexical Decision Making,2024.1.5,None,2024-11-24 16h24.45.083390 +0530,
f e a r f u l,1.0,negative,m,0,50,50,98,46.74076430000423,,,,,,,,,46.725905300001614,46.74076430000423,46.74076430000423,47.256671200011624,47.27391980000539,m,0.5299678000010317,None,m,m,,,,009,001,2024-11-24_16h24.31.303,Lexical Decision Making,2024.1.5,None,2024-11-24 16h24.45.083390 +0530,
g r i e f,1.0,negative,m,0,51,51,81,47.2895370000042,,,,,,,,,47.274465200011036,47.2895370000042,47.2895370000042,47.804519500001334,48.13858090000576,m,0.833406500009005,None,m,m,,,,009,001,2024-11-24_16h24.31.303,Lexical Decision Making,2024.1.5,None,2024-11-24 16h24.45.083390 +0530,
c h e e r,1.0,positive,m,0,52,52,63,48.15326940000523,,,,,,,,,48.13910370001395,48.15326940000523,48.15326940000523,48.66848910000408,48.96883660000458,m,0.8052928999968572,None,m,m,,,,009,001,2024-11-24_16h24.31.303,Lexical Decision Making,2024.1.5,None,2024-11-24 16h24.45.083390 +0530,
p e a c e,1.0,positive,m,0,53,53,97,48.985011200013105,,,,,,,,,48.969398200002615,48.985011200013105,48.985011200013105,49.500118900003145,49.71759600000223,m,0.7170642999990378,None,m,m,,,,009,001,2024-11-24_16h24.31.303,Lexical Decision Making,2024.1.5,None,2024-11-24 16h24.45.083390 +0530,
t r e n k,0.0,non-word,z,0,54,54,57,49.73319590000028,,,,,,,,,49.71812119999959,49.73319590000028,49.73319590000028,50.248114700007136,50.38231800000358,z,0.6324652999901446,None,z,z,,,,009,001,2024-11-24_16h24.31.303,Lexical Decision Making,2024.1.5,None,2024-11-24 16h24.45.083390 +0530,
l a m p,1.0,neutral,m,0,55,55,42,50.397512000010465,,,,,,,,,50.382846800013795,50.397512000010465,50.397512000010465,50.912743400011095,50.99761489999946,m,0.598683299991535,None,m,m,,,,009,001,2024-11-24_16h24.31.303,Lexical Decision Making,2024.1.5,None,2024-11-24 16h24.45.083390 +0530,
p l o r,0.0,non-word,z,0,56,56,52,51.013041400001384,,,,,,,,,50.99814750000951,51.013041400001384,51.013041400001384,51.52796830001171,51.695580400002655,z,0.6780219999927795,None,z,z,,,,009,001,2024-11-24_16h24.31.303,Lexical Decision Making,2024.1.5,None,2024-11-24 16h24.45.083390 +0530,
s a d,1.0,negative,m,0,57,57,87,51.710788100011996,,,,,,,,,51.69610460000695,51.710788100011996,51.710788100011996,52.22597460000543,52.742133000007016,m,1.0244359000062104,None,m,m,,,,009,001,2024-11-24_16h24.31.303,Lexical Decision Making,2024.1.5,None,2024-11-24 16h24.45.083390 +0530,
c l o u d,1.0,neutral,m,0,58,58,94,52.75803930000984,,,,,,,,,52.74265640000522,52.75803930000984,52.75803930000984,53.27270750000025,53.27379670001392,m,0.5036822999973083,None,m,m,,,,009,001,2024-11-24_16h24.31.303,Lexical Decision Making,2024.1.5,None,2024-11-24 16h24.45.083390 +0530,
t r a g e d y,1.0,negative,m,0,59,59,70,53.28998610000417,,,,,,,,,53.27432900000713,53.28998610000417,53.28998610000417,53.80450450000353,54.07143590001215,m,0.7700596999929985,None,m,m,,,,009,001,2024-11-24_16h24.31.303,Lexical Decision Making,2024.1.5,None,2024-11-24 16h24.45.083390 +0530,
l o v e,1.0,positive,m,0,60,60,0,54.08798150000803,,,,,,,,,54.07229140000709,54.08798150000803,54.08798150000803,54.60308350001287,54.803401800003485,m,0.7072695999959251,None,m,m,,,,009,001,2024-11-24_16h24.31.303,Lexical Decision Making,2024.1.5,None,2024-11-24 16h24.45.083390 +0530,
f a i l u r e,1.0,negative,m,0,61,61,77,54.81919320000452,,,,,,,,,54.80392830001074,54.81919320000452,54.81919320000452,55.33413230000588,55.61747920000926,m,0.7944340000103693,None,m,m,,,,009,001,2024-11-24_16h24.31.303,Lexical Decision Making,2024.1.5,None,2024-11-24 16h24.45.083390 +0530,
v o b l i t,0.0,non-word,z,0,62,62,38,55.63376480000443,,,,,,,,,55.61806930000603,55.63376480000443,55.63376480000443,56.14874210000562,56.26643350000086,z,0.6177169000002323,None,z,z,,,,009,001,2024-11-24_16h24.31.303,Lexical Decision Making,2024.1.5,None,2024-11-24 16h24.45.083390 +0530,
e x c i t e d,1.0,positive,m,0,63,63,10,56.281658600011724,,,,,,,,,56.26696360000642,56.281658600011724,56.281658600011724,56.79693440000119,56.89726770001289,m,0.6022157999977935,None,m,m,,,,009,001,2024-11-24_16h24.31.303,Lexical Decision Making,2024.1.5,None,2024-11-24 16h24.45.083390 +0530,
a c h i e v e m e n t,1.0,positive,m,0,64,64,27,56.91316130000632,,,,,,,,,56.898173900000984,56.91316130000632,56.91316130000632,57.41187040001387,57.47994010000548,m,0.5614411999995355,None,m,m,,,,009,001,2024-11-24_16h24.31.303,Lexical Decision Making,2024.1.5,None,2024-11-24 16h24.45.083390 +0530,
s m i l e,1.0,positive,m,0,65,65,55,57.49509690000559,,,,,,,,,57.48046570000588,57.49509690000559,57.49509690000559,58.01004740000644,58.14528150000842,m,0.6461782999977004,None,m,m,,,,009,001,2024-11-24_16h24.31.303,Lexical Decision Making,2024.1.5,None,2024-11-24 16h24.45.083390 +0530,
z o m p r e,0.0,non-word,z,0,66,66,73,58.15872320000199,,,,,,,,,58.14600080001401,58.15872320000199,58.15872320000199,58.65843880000466,58.77593390000402,z,0.6004444999998668,None,z,z,,,,009,001,2024-11-24_16h24.31.303,Lexical Decision Making,2024.1.5,None,2024-11-24 16h24.45.083390 +0530,
d e s p a i r,1.0,negative,m,0,67,67,56,58.791601400007494,,,,,,,,,58.77646070001356,58.791601400007494,58.791601400007494,59.306540200006566,59.324232400002074,m,0.5243291999940993,None,m,m,,,,009,001,2024-11-24_16h24.31.303,Lexical Decision Making,2024.1.5,None,2024-11-24 16h24.45.083390 +0530,
l a w v e r,0.0,non-word,z,0,68,68,76,59.3393439000065,,,,,,,,,59.324758600007044,59.3393439000065,59.3393439000065,59.83850060000259,59.973059800002375,z,0.6279968999879202,None,z,z,,,,009,001,2024-11-24_16h24.31.303,Lexical Decision Making,2024.1.5,None,2024-11-24 16h24.45.083390 +0530,
d e l i g h t,1.0,positive,m,0,69,69,39,59.98812380000891,,,,,,,,,59.97386880000704,59.98812380000891,59.98812380000891,60.48675960001128,61.286255800005165,m,1.2860292000113986,None,m,m,,,,009,001,2024-11-24_16h24.31.303,Lexical Decision Making,2024.1.5,None,2024-11-24 16h24.45.083390 +0530,
h a t e,1.0,negative,m,0,70,70,74,61.30138620000798,,,,,,,,,61.286983700003475,61.30138620000798,61.30138620000798,61.81621120001364,61.817609500008984,m,0.5136448000121163,None,m,m,,,,009,001,2024-11-24_16h24.31.303,Lexical Decision Making,2024.1.5,None,2024-11-24 16h24.45.083390 +0530,
t a b l e,1.0,neutral,m,0,71,71,6,61.83280650000961,,,,,,,,,61.81813780000084,61.83280650000961,61.83280650000961,62.33144410001114,63.16422330000205,m,1.3190291999926558,None,m,m,,,,009,001,2024-11-24_16h24.31.303,Lexical Decision Making,2024.1.5,None,2024-11-24 16h24.45.083390 +0530,
a n g e r,1.0,negative,m,0,72,72,15,63.17993370001204,,,,,,,,,63.164756700003636,63.17993370001204,63.17993370001204,63.69461430000956,63.79564830000163,m,0.6073722000000998,None,m,m,,,,009,001,2024-11-24_16h24.31.303,Lexical Decision Making,2024.1.5,None,2024-11-24 16h24.45.083390 +0530,
g r a t i t u d e,1.0,positive,m,0,73,73,41,63.81106040001032,,,,,,,,,63.79617350001354,63.81106040001032,63.81106040001032,64.32626340001298,66.13845860000583,m,2.3202276000083657,None,m,m,,,,009,001,2024-11-24_16h24.31.303,Lexical Decision Making,2024.1.5,None,2024-11-24 16h24.45.083390 +0530,
m e t r o,1.0,neutral,m,0,74,74,96,66.15472290001344,,,,,,,,,66.13939150000806,66.15472290001344,66.15472290001344,66.66959560000396,67.103763600011,m,0.941601599988644,None,m,m,,,,009,001,2024-11-24_16h24.31.303,Lexical Decision Making,2024.1.5,None,2024-11-24 16h24.45.083390 +0530,
s w o r p y,0.0,non-word,z,0,75,75,69,67.11855710000964,,,,,,,,,67.10430260001158,67.11855710000964,67.11855710000964,67.63450560001365,69.13093070000468,m,2.002504999996745,None,m,z,,,,009,001,2024-11-24_16h24.31.303,Lexical Decision Making,2024.1.5,None,2024-11-24 16h24.45.083390 +0530,
c l o c k,1.0,neutral,m,0,76,76,20,69.14629490001244,,,,,,,,,69.13145690000965,69.14629490001244,69.14629490001244,69.66194360000372,69.71229940000921,m,0.5578065000008792,None,m,m,,,,009,001,2024-11-24_16h24.31.303,Lexical Decision Making,2024.1.5,None,2024-11-24 16h24.45.083390 +0530,
b l o r p,0.0,non-word,z,0,77,77,60,69.72838179999962,,,,,,,,,69.71301050001057,69.72838179999962,69.72838179999962,70.24283610000566,70.36062780000793,z,0.6231791000027442,None,z,z,,,,009,001,2024-11-24_16h24.31.303,Lexical Decision Making,2024.1.5,None,2024-11-24 16h24.45.083390 +0530,
c h i n d l e,0.0,non-word,z,0,78,78,8,70.37592850001238,,,,,,,,,70.36115609999979,70.37592850001238,70.37592850001238,70.87480499999947,71.22515320000821,z,0.837989200008451,None,z,z,,,,009,001,2024-11-24_16h24.31.303,Lexical Decision Making,2024.1.5,None,2024-11-24 16h24.45.083390 +0530,
v i c t o r y,1.0,positive,m,0,79,79,25,71.24052590000792,,,,,,,,,71.22568980000506,71.24052590000792,71.24052590000792,71.75906120000582,72.12311430000409,m,0.8711359000008088,None,m,m,,,,009,001,2024-11-24_16h24.31.303,Lexical Decision Making,2024.1.5,None,2024-11-24 16h24.45.083390 +0530,
g l o r b y,0.0,non-word,z,0,80,80,28,72.13833720001276,,,,,,,,,72.12363950000145,72.13833720001276,72.13833720001276,72.6370639000088,73.05323970000609,m,0.9123717000038596,None,m,z,,,,009,001,2024-11-24_16h24.31.303,Lexical Decision Making,2024.1.5,None,2024-11-24 16h24.45.083390 +0530,
z a r f e t,0.0,non-word,z,0,81,81,31,73.06901090001338,,,,,,,,,73.05378380000184,73.06901090001338,73.06901090001338,73.56766640000569,73.58485080000537,z,0.5113084000040544,None,z,z,,,,009,001,2024-11-24_16h24.31.303,Lexical Decision Making,2024.1.5,None,2024-11-24 16h24.45.083390 +0530,
c r i o u s,0.0,non-word,z,0,82,82,99,73.601178300014,,,,,,,,,73.58538140000019,73.601178300014,73.601178300014,74.11514440001338,74.28371790000529,z,0.6692286000034073,None,z,z,,,,009,001,2024-11-24_16h24.31.303,Lexical Decision Making,2024.1.5,None,2024-11-24 16h24.45.083390 +0530,
p a i n,1.0,negative,m,0,83,83,83,74.29942330000631,,,,,,,,,74.28424170000653,74.29942330000631,74.29942330000631,74.81404409999959,75.0322421000019,m,0.7277254000073299,None,m,m,,,,009,001,2024-11-24_16h24.31.303,Lexical Decision Making,2024.1.5,None,2024-11-24 16h24.45.083390 +0530,
s m o r n,0.0,non-word,z,0,84,84,14,75.04658090000157,,,,,,,,,75.03284820000408,75.04658090000157,75.04658090000157,75.56174730000203,75.614630400014,z,0.5665499999886379,None,z,z,,,,009,001,2024-11-24_16h24.31.303,Lexical Decision Making,2024.1.5,None,2024-11-24 16h24.45.083390 +0530,
b l o r p,0.0,non-word,z,0,85,85,5,75.62885680000181,,,,,,,,,75.61535100000037,75.62885680000181,75.62885680000181,76.14436450001085,76.24446130001161,z,0.6033886999939568,None,z,z,,,,009,001,2024-11-24_16h24.31.303,Lexical Decision Making,2024.1.5,None,2024-11-24 16h24.45.083390 +0530,
c h e e r f u l,1.0,positive,m,0,86,86,43,76.26045580000209,,,,,,,,,76.24498670001049,76.26045580000209,76.26045580000209,76.77920540000196,76.82759140001144,m,0.5622301999974297,None,m,m,,,,009,001,2024-11-24_16h24.31.303,Lexical Decision Making,2024.1.5,None,2024-11-24 16h24.45.083390 +0530,
m i s e r y,1.0,negative,m,0,87,87,34,76.84257750000688,,,,,,,,,76.8281369000033,76.84257750000688,76.84257750000688,77.35730740000145,77.45839910001087,m,0.6117327999963891,None,m,m,,,,009,001,2024-11-24_16h24.31.303,Lexical Decision Making,2024.1.5,None,2024-11-24 16h24.45.083390 +0530,
b o t t l e,1.0,neutral,m,0,88,88,58,77.47370159999991,,,,,,,,,77.45893640001304,77.47370159999991,77.47370159999991,,77.95727280000574,m,0.47612749999098014,None,m,m,,,,009,001,2024-11-24_16h24.31.303,Lexical Decision Making,2024.1.5,None,2024-11-24 16h24.45.083390 +0530,
s a d n e s s,1.0,negative,m,0,89,89,88,77.97214209999947,,,,,,,,,77.9578046000097,77.97214209999947,77.97214209999947,78.48751390000689,78.70464670000365,m,0.7271449999971082,None,m,m,,,,009,001,2024-11-24_16h24.31.303,Lexical Decision Making,2024.1.5,None,2024-11-24 16h24.45.083390 +0530,
s m o r n,0.0,non-word,z,0,90,90,51,78.72060530001181,,,,,,,,,78.7051807000098,78.72060530001181,78.72060530001181,79.2353826000035,79.28697580000153,z,0.5559795000008307,None,z,z,,,,009,001,2024-11-24_16h24.31.303,Lexical Decision Making,2024.1.5,None,2024-11-24 16h24.45.083390 +0530,
p e n c i l,1.0,neutral,m,0,91,91,37,79.30149780001375,,,,,,,,,79.28750010000658,79.30149780001375,79.30149780001375,79.81707800000731,79.8523855000094,m,0.5431730999989668,None,m,m,,,,009,001,2024-11-24_16h24.31.303,Lexical Decision Making,2024.1.5,None,2024-11-24 16h24.45.083390 +0530,
t r a i n,1.0,neutral,m,0,92,92,40,79.86665860000357,,,,,,,,,79.85291560000041,79.86665860000357,79.86665860000357,80.36558440000226,80.53341750000254,m,0.6614664000080666,None,m,m,,,,009,001,2024-11-24_16h24.31.303,Lexical Decision Making,2024.1.5,None,2024-11-24 16h24.45.083390 +0530,
d r i n t,0.0,non-word,z,0,93,93,36,80.54909420000331,,,,,,,,,80.5339687000087,80.54909420000331,80.54909420000331,81.06411720000324,81.21422400001029,z,0.6527956999925664,None,z,z,,,,009,001,2024-11-24_16h24.31.303,Lexical Decision Making,2024.1.5,None,2024-11-24 16h24.45.083390 +0530,
h a p p y,1.0,positive,m,0,94,94,21,81.23007670001243,,,,,,,,,81.2151184000104,81.23007670001243,81.23007670001243,81.74567160000151,81.99964270000055,m,0.7627802999923006,None,m,m,,,,009,001,2024-11-24_16h24.31.303,Lexical Decision Making,2024.1.5,None,2024-11-24 16h24.45.083390 +0530,
g r i n d l e,0.0,non-word,z,0,95,95,17,82.0112855000043,,,,,,,,,82.00026590000198,82.0112855000043,82.0112855000043,82.52675490001275,82.59642260000692,z,0.5753875999944285,None,z,z,,,,009,001,2024-11-24_16h24.31.303,Lexical Decision Making,2024.1.5,None,2024-11-24 16h24.45.083390 +0530,
d r o n t,0.0,non-word,z,0,96,96,95,82.60997119999956,,,,,,,,,82.59707030000573,82.60997119999956,82.60997119999956,83.12569330001133,83.2425474000047,z,0.6165944000094896,None,z,z,,,,009,001,2024-11-24_16h24.31.303,Lexical Decision Making,2024.1.5,None,2024-11-24 16h24.45.083390 +0530,
g r i n d l e,0.0,non-word,z,0,97,97,3,83.25738000001002,,,,,,,,,83.24309470001026,83.25738000001002,83.25738000001002,83.75655210000696,83.90742090001004,z,0.6346103000105359,None,z,z,,,,009,001,2024-11-24_16h24.31.303,Lexical Decision Making,2024.1.5,None,2024-11-24 16h24.45.083390 +0530,
d r e n k,0.0,non-word,z,0,98,98,4,83.92253970001184,,,,,,,,,83.90796280000359,83.92253970001184,83.92253970001184,84.42116290000558,85.0533337000088,m,1.1147437000036007,None,m,z,,,,009,001,2024-11-24_16h24.31.303,Lexical Decision Making,2024.1.5,None,2024-11-24 16h24.45.083390 +0530,
f l o r t,0.0,non-word,z,0,99,99,11,85.06908939999994,,,,,,,,,85.05388950000633,85.06908939999994,85.06908939999994,85.56846180000866,85.68608660000609,z,0.6121729000005871,None,z,z,,,,009,001,2024-11-24_16h24.31.303,Lexical Decision Making,2024.1.5,None,2024-11-24 16h24.45.083390 +0530,
p l o r,0.0,non-word,z,1,0,100,52,85.7010270000028,,,,,,,,,85.6867479000066,85.7010270000028,85.7010270000028,86.20027700001083,86.84941360000812,m,1.1322515999927418,None,m,z,,,,009,001,2024-11-24_16h24.31.303,Lexical Decision Making,2024.1.5,None,2024-11-24 16h24.45.083390 +0530,
c l o c k,1.0,neutral,m,1,1,101,20,86.86454290000256,,,,,,,,,86.84994160001224,86.86454290000256,86.86454290000256,87.37971950000792,87.46477170000435,m,0.5889543000084814,None,m,m,,,,009,001,2024-11-24_16h24.31.303,Lexical Decision Making,2024.1.5,None,2024-11-24 16h24.45.083390 +0530,
p e n c i l,1.0,neutral,m,1,2,102,24,87.48044410000148,,,,,,,,,87.4652991000039,87.48044410000148,87.48044410000148,,87.94685080001364,m,0.44924909999826923,None,m,m,,,,009,001,2024-11-24_16h24.31.303,Lexical Decision Making,2024.1.5,None,2024-11-24 16h24.45.083390 +0530,
s a d n e s s,1.0,negative,m,1,3,103,88,87.96155360000557,,,,,,,,,87.94739230000414,87.96155360000557,87.96155360000557,,88.42871200000809,m,0.452970300000743,None,m,m,,,,009,001,2024-11-24_16h24.31.303,Lexical Decision Making,2024.1.5,None,2024-11-24 16h24.45.083390 +0530,
a n g e r,1.0,negative,m,1,4,104,44,88.44401320000179,,,,,,,,,88.42925830000604,88.44401320000179,88.44401320000179,,88.92755089999991,m,0.46858159999828786,None,m,m,,,,009,001,2024-11-24_16h24.31.303,Lexical Decision Making,2024.1.5,None,2024-11-24 16h24.45.083390 +0530,
h a t e,1.0,negative,m,1,5,105,74,88.94264600001043,,,,,,,,,88.9282702000055,88.94264600001043,88.94264600001043,,89.37603730001138,m,0.42700009999680333,None,m,m,,,,009,001,2024-11-24_16h24.31.303,Lexical Decision Making,2024.1.5,None,2024-11-24 16h24.45.083390 +0530,
z o m p r e,0.0,non-word,z,1,6,106,73,89.39100900001358,,,,,,,,,89.37657040001068,89.39100900001358,89.39100900001358,89.90642380001373,90.04122199999983,z,0.6352336999989348,None,z,z,,,,009,001,2024-11-24_16h24.31.303,Lexical Decision Making,2024.1.5,None,2024-11-24 16h24.45.083390 +0530,
b l o r p,0.0,non-word,z,1,7,107,60,90.05578810001316,,,,,,,,,90.04175820000819,90.05578810001316,90.05578810001316,90.57160060000024,91.02195870000287,z,0.9645366000040667,None,z,z,,,,009,001,2024-11-24_16h24.31.303,Lexical Decision Making,2024.1.5,None,2024-11-24 16h24.45.083390 +0530,
p a i n,1.0,negative,m,1,8,108,83,91.03672870001174,,,,,,,,,91.02259880000202,91.03672870001174,91.03672870001174,91.55189000000246,92.79944460000843,z,1.74702249999973,None,z,m,,,,009,001,2024-11-24_16h24.31.303,Lexical Decision Making,2024.1.5,None,2024-11-24 16h24.45.083390 +0530,
f e a r f u l,1.0,negative,m,1,9,109,2,92.81534010000178,,,,,,,,,92.7999739000079,92.81534010000178,92.81534010000178,,93.23255670000799,m,0.40060100000118837,None,m,m,,,,009,001,2024-11-24_16h24.31.303,Lexical Decision Making,2024.1.5,None,2024-11-24 16h24.45.083390 +0530,
r e g r e t,1.0,negative,m,1,10,110,64,93.2470614000049,,,,,,,,,93.23312790000637,93.2470614000049,93.2470614000049,93.7458375000133,93.78028020000784,m,0.5182927000132622,None,m,m,,,,009,001,2024-11-24_16h24.31.303,Lexical Decision Making,2024.1.5,None,2024-11-24 16h24.45.083390 +0530,
c l o c k,1.0,neutral,m,1,11,111,48,93.79562960000476,,,,,,,,,93.78080450001289,93.79562960000476,93.79562960000476,94.29407780000474,94.31205540000519,m,0.5103761999926064,None,m,m,,,,009,001,2024-11-24_16h24.31.303,Lexical Decision Making,2024.1.5,None,2024-11-24 16h24.45.083390 +0530,
l o m e b,0.0,non-word,z,1,12,112,90,94.32789210000192,,,,,,,,,94.31257760000881,94.32789210000192,94.32789210000192,94.84301799999957,95.04395150000346,z,0.7125020999956178,None,z,z,,,,009,001,2024-11-24_16h24.31.303,Lexical Decision Making,2024.1.5,None,2024-11-24 16h24.45.083390 +0530,
h o p e,1.0,positive,m,1,13,113,46,95.05860300001223,,,,,,,,,95.04451650001283,95.05860300001223,95.05860300001223,95.5582626000105,95.77501130000746,m,0.7045480999950087,None,m,m,,,,009,001,2024-11-24_16h24.31.303,Lexical Decision Making,2024.1.5,None,2024-11-24 16h24.45.083390 +0530,
c r i o u s,0.0,non-word,z,1,14,114,99,95.79052580001007,,,,,,,,,95.77554950000194,95.79052580001007,95.79052580001007,96.30573670000012,96.62243860001036,z,0.8200248000066495,None,z,z,,,,009,001,2024-11-24_16h24.31.303,Lexical Decision Making,2024.1.5,None,2024-11-24 16h24.45.083390 +0530,
l a w v e r,0.0,non-word,z,1,15,115,76,96.6381900000124,,,,,,,,,96.62297150000813,96.6381900000124,96.6381900000124,97.15341290000651,97.80291930001113,m,1.1539300000004005,None,m,z,,,,009,001,2024-11-24_16h24.31.303,Lexical Decision Making,2024.1.5,None,2024-11-24 16h24.45.083390 +0530,
g r u f f i l,0.0,non-word,z,1,16,116,49,97.81874270000844,,,,,,,,,97.80345110000053,97.81874270000844,97.81874270000844,98.33338070000173,98.55104200000642,z,0.7279776000068523,None,z,z,,,,009,001,2024-11-24_16h24.31.303,Lexical Decision Making,2024.1.5,None,2024-11-24 16h24.45.083390 +0530,
c h e e r,1.0,positive,m,1,17,117,63,98.5658245000086,,,,,,,,,98.55156490000081,98.5658245000086,98.5658245000086,99.08154950001335,99.82984610000858,m,1.2562677999958396,None,m,m,,,,009,001,2024-11-24_16h24.31.303,Lexical Decision Making,2024.1.5,None,2024-11-24 16h24.45.083390 +0530,
p e a c e,1.0,positive,m,1,18,118,89,99.84530390000145,,,,,,,,,99.83036590000847,99.84530390000145,99.84530390000145,100.34445110001252,101.22762880001392,m,1.377583000008599,None,m,m,,,,009,001,2024-11-24_16h24.31.303,Lexical Decision Making,2024.1.5,None,2024-11-24 16h24.45.083390 +0530,
s o r r o w,1.0,negative,m,1,19,119,33,101.2424197000073,,,,,,,,,101.22856380000303,101.2424197000073,101.2424197000073,101.75705890000972,103.32078150000598,m,2.065525699988939,None,m,m,,,,009,001,2024-11-24_16h24.31.303,Lexical Decision Making,2024.1.5,None,2024-11-24 16h24.45.083390 +0530,
a n g e r,1.0,negative,m,1,20,120,15,103.33655040001031,,,,,,,,,103.32131490000756,103.33655040001031,103.33655040001031,103.85214020000421,103.97004880000895,m,0.6230770999973174,None,m,m,,,,009,001,2024-11-24_16h24.31.303,Lexical Decision Making,2024.1.5,None,2024-11-24 16h24.45.083390 +0530,
s m i l e,1.0,positive,m,1,21,121,55,103.98459330000333,,,,,,,,,103.97063760001038,103.98459330000333,103.98459330000333,104.50046910000674,104.56796260000556,m,0.5779272999934619,None,m,m,,,,009,001,2024-11-24_16h24.31.303,Lexical Decision Making,2024.1.5,None,2024-11-24 16h24.45.083390 +0530,
j o y f u l,1.0,positive,m,1,22,122,19,104.58275330001197,,,,,,,,,104.56849660001171,104.58275330001197,104.58275330001197,105.09833210000943,105.14911910000956,m,0.5646295000042301,None,m,m,,,,009,001,2024-11-24_16h24.31.303,Lexical Decision Making,2024.1.5,None,2024-11-24 16h24.45.083390 +0530,
m e t r o,1.0,neutral,m,1,23,123,96,105.16454570001224,,,,,,,,,105.14964760000294,105.16454570001224,105.16454570001224,105.66378430000623,105.78127540000423,m,0.6053631999966456,None,m,m,,,,009,001,2024-11-24_16h24.31.303,Lexical Decision Making,2024.1.5,None,2024-11-24 16h24.45.083390 +0530,
k i n d n e s s,1.0,positive,m,1,24,124,82,105.79618570000457,,,,,,,,,105.78181170001335,105.79618570000457,105.79618570000457,106.29492740001297,106.39546620000328,m,0.5833111999963876,None,m,m,,,,009,001,2024-11-24_16h24.31.303,Lexical Decision Making,2024.1.5,None,2024-11-24 16h24.45.083390 +0530,
m i s e r y,1.0,negative,m,1,25,125,34,106.41137150001305,,,,,,,,,106.3961976999999,106.41137150001305,106.41137150001305,106.92702280000958,106.92861880001146,m,0.5047512000019196,None,m,m,,,,009,001,2024-11-24_16h24.31.303,Lexical Decision Making,2024.1.5,None,2024-11-24 16h24.45.083390 +0530,
v o b l i t,0.0,non-word,z,1,26,126,38,106.94332500000019,,,,,,,,,106.92929270000604,106.94332500000019,106.94332500000019,107.4581390000094,107.57573840000259,z,0.6160433000040939,None,z,z,,,,009,001,2024-11-24_16h24.31.303,Lexical Decision Making,2024.1.5,None,2024-11-24 16h24.45.083390 +0530,
t a b l e,1.0,neutral,m,1,27,127,6,107.59144980000565,,,,,,,,,107.576275000014,107.59144980000565,107.59144980000565,108.10671240001102,108.32350810000207,z,0.7174592999945162,None,z,m,,,,009,001,2024-11-24_16h24.31.303,Lexical Decision Making,2024.1.5,None,2024-11-24 16h24.45.083390 +0530,
g r a t i t u d e,1.0,positive,m,1,28,128,41,108.33979700000782,,,,,,,,,108.32403230000637,108.33979700000782,108.33979700000782,108.8543706000055,109.00532540000859,m,0.6486848000058671,None,m,m,,,,009,001,2024-11-24_16h24.31.303,Lexical Decision Making,2024.1.5,None,2024-11-24 16h24.45.083390 +0530,
d e l i g h t,1.0,positive,m,1,29,129,39,109.02116580000438,,,,,,,,,109.00585980000324,109.02116580000438,109.02116580000438,109.51925210001355,109.66999320000468,m,0.6352686000027461,None,m,m,,,,009,001,2024-11-24_16h24.31.303,Lexical Decision Making,2024.1.5,None,2024-11-24 16h24.45.083390 +0530,
a c h i e v e m e n t,1.0,positive,m,1,30,130,27,109.68624060000002,,,,,,,,,109.67052750001312,109.68624060000002,109.68624060000002,110.2004733000067,110.18518940001377,m,0.49760850000893697,None,m,m,,,,009,001,2024-11-24_16h24.31.303,Lexical Decision Making,2024.1.5,None,2024-11-24 16h24.45.083390 +0530,
d r o n t,0.0,non-word,z,1,31,131,95,110.2004733000067,,,,,,,,,110.18571940000402,110.2004733000067,110.2004733000067,110.70017510000616,111.09954360000847,z,0.8911113000067417,None,z,z,,,,009,001,2024-11-24_16h24.31.303,Lexical Decision Making,2024.1.5,None,2024-11-24 16h24.45.083390 +0530,
h a p p y,1.0,positive,m,1,32,132,21,111.11531839999952,,,,,,,,,111.10012120001193,111.11531839999952,111.11531839999952,111.63016310000967,111.79752770000778,m,0.6674806999944849,None,m,m,,,,009,001,2024-11-24_16h24.31.303,Lexical Decision Making,2024.1.5,None,2024-11-24 16h24.45.083390 +0530,
v a b l i n,0.0,non-word,z,1,33,133,1,111.8133630000084,,,,,,,,,111.79805190001207,111.8133630000084,111.8133630000084,112.32835900000646,112.96063270000741,m,1.1456704000011086,None,m,z,,,,009,001,2024-11-24_16h24.31.303,Lexical Decision Making,2024.1.5,None,2024-11-24 16h24.45.083390 +0530,
l o v e,1.0,positive,m,1,34,134,0,112.9768405000068,,,,,,,,,112.96116180000536,112.9768405000068,112.9768405000068,,113.45995360000234,m,0.47894970000197645,None,m,m,,,,009,001,2024-11-24_16h24.31.303,Lexical Decision Making,2024.1.5,None,2024-11-24 16h24.45.083390 +0530,
d r e n k,0.0,non-word,z,1,35,135,4,113.4751060000126,,,,,,,,,113.46049979999952,113.4751060000126,113.4751060000126,113.97391760000028,114.15765760000795,z,0.6712660000048345,None,z,z,,,,009,001,2024-11-24_16h24.31.303,Lexical Decision Making,2024.1.5,None,2024-11-24 16h24.45.083390 +0530,
s a d,1.0,negative,m,1,36,136,87,114.17332210000313,,,,,,,,,114.15861120000773,114.17332210000313,114.17332210000313,114.68823890000931,115.15519240000867,m,0.9686212000087835,None,m,m,,,,009,001,2024-11-24_16h24.31.303,Lexical Decision Making,2024.1.5,None,2024-11-24 16h24.45.083390 +0530,
g r i n d l e,0.0,non-word,z,1,37,137,3,115.17051720000745,,,,,,,,,115.15573390001373,115.17051720000745,115.17051720000745,115.68645800001104,115.78687460000219,z,0.6073119999928167,None,z,z,,,,009,001,2024-11-24_16h24.31.303,Lexical Decision Making,2024.1.5,None,2024-11-24 16h24.45.083390 +0530,
g r i n d l e,0.0,non-word,z,1,38,138,54,115.80231290000665,,,,,,,,,115.78743080000277,115.80231290000665,115.80231290000665,116.31723980000243,116.53464800000074,m,0.7301095000002533,None,m,z,,,,009,001,2024-11-24_16h24.31.303,Lexical Decision Making,2024.1.5,None,2024-11-24 16h24.45.083390 +0530,
d r i n t,0.0,non-word,z,1,39,139,23,116.55005860001256,,,,,,,,,116.53538570000092,116.55005860001256,116.55005860001256,117.04894860000059,117.2662995000137,z,0.7119481999980053,None,z,z,,,,009,001,2024-11-24_16h24.31.303,Lexical Decision Making,2024.1.5,None,2024-11-24 16h24.45.083390 +0530,
f e a r f u l,1.0,negative,m,1,40,140,98,117.2814059000084,,,,,,,,,117.26684890000615,117.2814059000084,117.2814059000084,117.79737530001148,118.37901810000767,m,1.0916569999972126,None,m,m,,,,009,001,2024-11-24_16h24.31.303,Lexical Decision Making,2024.1.5,None,2024-11-24 16h24.45.083390 +0530,
s u c c e s s,1.0,positive,m,1,41,141,35,118.39524860000529,,,,,,,,,118.3795558000129,118.39524860000529,118.39524860000529,118.89435760000197,119.04481320000195,m,0.6341377999924589,None,m,m,,,,009,001,2024-11-24_16h24.31.303,Lexical Decision Making,2024.1.5,None,2024-11-24 16h24.45.083390 +0530,
m o u n t a i n,1.0,neutral,m,1,42,142,71,119.06047390001186,,,,,,,,,119.0453489000065,119.06047390001186,119.06047390001186,119.57540950000111,119.56032200000482,m,0.49103189999004826,None,m,m,,,,009,001,2024-11-24_16h24.31.303,Lexical Decision Making,2024.1.5,None,2024-11-24 16h24.45.083390 +0530,
e x c i t e d,1.0,positive,m,1,43,143,10,119.57540950000111,,,,,,,,,119.5608884000103,119.57540950000111,119.57540950000111,,120.04213270000764,m,0.460431300001801,None,m,m,,,,009,001,2024-11-24_16h24.31.303,Lexical Decision Making,2024.1.5,None,2024-11-24 16h24.45.083390 +0530,
g r i e f,1.0,negative,m,1,44,144,50,120.05754780001007,,,,,,,,,120.0427505000116,120.05754780001007,120.05754780001007,,120.52363960001094,m,0.4611998000036692,None,m,m,,,,009,001,2024-11-24_16h24.31.303,Lexical Decision Making,2024.1.5,None,2024-11-24 16h24.45.083390 +0530,
l a m p,1.0,neutral,m,1,45,145,18,120.53931770000781,,,,,,,,,120.52417170000263,120.53931770000781,120.53931770000781,121.03751650000049,121.13899140000285,m,0.5928569999960018,None,m,m,,,,009,001,2024-11-24_16h24.31.303,Lexical Decision Making,2024.1.5,None,2024-11-24 16h24.45.083390 +0530,
t r a g e d y,1.0,negative,m,1,46,146,70,121.15510329999961,,,,,,,,,121.13951320000342,121.15510329999961,121.15510329999961,121.66954400000395,121.80414270001347,m,0.6316875999909826,None,m,m,,,,009,001,2024-11-24_16h24.31.303,Lexical Decision Making,2024.1.5,None,2024-11-24 16h24.45.083390 +0530,
b r a s k,0.0,non-word,z,1,47,147,79,121.81901020000805,,,,,,,,,121.804681300011,121.81901020000805,121.81901020000805,122.33486100001028,122.48592570000619,m,0.6634084999968763,None,m,z,,,,009,001,2024-11-24_16h24.31.303,Lexical Decision Making,2024.1.5,None,2024-11-24 16h24.45.083390 +0530,
a p p l e,1.0,neutral,m,1,48,148,32,122.5008780000062,,,,,,,,,122.48651539999992,122.5008780000062,122.5008780000062,123.01573690000805,123.33283260000462,m,0.8248916000011377,None,m,m,,,,009,001,2024-11-24_16h24.31.303,Lexical Decision Making,2024.1.5,None,2024-11-24 16h24.45.083390 +0530,
e x c i t e d,1.0,positive,m,1,49,149,72,123.34833430001163,,,,,,,,,123.33336430000782,123.34833430001163,123.34833430001163,123.86357680000947,123.89832570000726,m,0.5488321000011638,None,m,m,,,,009,001,2024-11-24_16h24.31.303,Lexical Decision Making,2024.1.5,None,2024-11-24 16h24.45.083390 +0530,
g r i e f,1.0,negative,m,1,50,150,62,123.91354960000899,,,,,,,,,123.89885450000293,123.91354960000899,123.91354960000899,124.42851820000215,124.72927130000608,m,0.79870280000614,None,m,m,,,,009,001,2024-11-24_16h24.31.303,Lexical Decision Making,2024.1.5,None,2024-11-24 16h24.45.083390 +0530,
z a r f e t,0.0,non-word,z,1,51,151,31,124.74539230001392,,,,,,,,,124.72979630000191,124.74539230001392,124.74539230001392,125.25999710000178,125.41074540000409,z,0.6546904000133509,None,z,z,,,,009,001,2024-11-24_16h24.31.303,Lexical Decision Making,2024.1.5,None,2024-11-24 16h24.45.083390 +0530,
c a b l e,1.0,neutral,m,1,52,152,78,125.42648540000664,,,,,,,,,125.41126920000534,125.42648540000664,125.42648540000664,125.94160270001157,126.90675010000996,m,1.4653577999997651,None,m,m,,,,009,001,2024-11-24_16h24.31.303,Lexical Decision Making,2024.1.5,None,2024-11-24 16h24.45.083390 +0530,
s u n s h i n e,1.0,positive,m,1,53,153,30,126.92229460000817,,,,,,,,,126.90727020001214,126.92229460000817,126.92229460000817,127.43710990001273,128.4358624000015,z,1.5018192999996245,None,z,m,,,,009,001,2024-11-24_16h24.31.303,Lexical Decision Making,2024.1.5,None,2024-11-24 16h24.45.083390 +0530,
s t o n e,1.0,neutral,m,1,54,154,13,128.45110350000323,,,,,,,,,128.43648550000216,128.45110350000323,128.45110350000323,,128.918058500014,m,0.45380600000498816,None,m,m,,,,009,001,2024-11-24_16h24.31.303,Lexical Decision Making,2024.1.5,None,2024-11-24 16h24.45.083390 +0530,
w i n d o w,1.0,neutral,m,1,55,155,68,128.93316140001116,,,,,,,,,128.91897560001235,128.93316140001116,128.93316140001116,129.4485427000036,131.1118650999997,m,2.1666662999923574,None,m,m,,,,009,001,2024-11-24_16h24.31.303,Lexical Decision Making,2024.1.5,None,2024-11-24 16h24.45.083390 +0530,
t w o r i k,0.0,non-word,z,1,56,156,93,131.12731410001288,,,,,,,,,131.11240840000391,131.12731410001288,131.12731410001288,131.64262820000295,132.1753435999999,z,1.0402401000028476,None,z,z,,,,009,001,2024-11-24_16h24.31.303,Lexical Decision Making,2024.1.5,None,2024-11-24 16h24.45.083390 +0530,
l o s s,1.0,negative,m,1,57,157,29,132.19067619999987,,,,,,,,,132.17587570000615,132.19067619999987,132.19067619999987,,132.62430470000254,m,0.41821730000083335,None,m,m,,,,009,001,2024-11-24_16h24.31.303,Lexical Decision Making,2024.1.5,None,2024-11-24 16h24.45.083390 +0530,
t r a i n,1.0,neutral,m,1,58,158,40,132.63939540000865,,,,,,,,,132.62518100001034,132.63939540000865,132.63939540000865,133.154752500006,133.37265330000082,m,0.7225098999915645,None,m,m,,,,009,001,2024-11-24_16h24.31.303,Lexical Decision Making,2024.1.5,None,2024-11-24 16h24.45.083390 +0530,
v i c t o r y,1.0,positive,m,1,59,159,25,133.38801580001018,,,,,,,,,133.3732646000135,133.38801580001018,133.38801580001018,133.903060200013,133.90433100001246,m,0.5087529000011273,None,m,m,,,,009,001,2024-11-24_16h24.31.303,Lexical Decision Making,2024.1.5,None,2024-11-24 16h24.45.083390 +0530,
f l o r t,0.0,non-word,z,1,60,160,11,133.92015950000496,,,,,,,,,133.90486500000407,133.92015950000496,133.92015950000496,134.43498340000224,134.63531960001274,z,0.7112711999943713,None,z,z,,,,009,001,2024-11-24_16h24.31.303,Lexical Decision Making,2024.1.5,None,2024-11-24 16h24.45.083390 +0530,
d r i n t,0.0,non-word,z,1,61,161,36,134.6504918999999,,,,,,,,,134.63585700000112,134.6504918999999,134.6504918999999,135.14936060000036,135.26725750000332,z,0.6059574999962933,None,z,z,,,,009,001,2024-11-24_16h24.31.303,Lexical Decision Making,2024.1.5,None,2024-11-24 16h24.45.083390 +0530,
p l a r k,0.0,non-word,z,1,62,162,45,135.28249380001216,,,,,,,,,135.2678767000034,135.28249380001216,135.28249380001216,135.79782800000976,135.8155676000024,z,0.5166749000054551,None,z,z,,,,009,001,2024-11-24_16h24.31.303,Lexical Decision Making,2024.1.5,None,2024-11-24 16h24.45.083390 +0530,
f a i l u r e,1.0,negative,m,1,63,163,77,135.83096820001083,,,,,,,,,135.8162849000073,135.83096820001083,135.83096820001083,136.32990120000613,136.34764700000233,m,0.5127678999997443,None,m,m,,,,009,001,2024-11-24_16h24.31.303,Lexical Decision Making,2024.1.5,None,2024-11-24 16h24.45.083390 +0530,
s m o r n,0.0,non-word,z,1,64,164,14,136.36259260000952,,,,,,,,,136.34835670000757,136.36259260000952,136.36259260000952,136.86157660000026,136.9628536000091,z,0.5912933999934467,None,z,z,,,,009,001,2024-11-24_16h24.31.303,Lexical Decision Making,2024.1.5,None,2024-11-24 16h24.45.083390 +0530,
t r e n k,0.0,non-word,z,1,65,165,57,136.9776309000008,,,,,,,,,136.96337160000985,136.9776309000008,136.9776309000008,137.49375670000154,137.51056620001327,z,0.5310229000024265,None,z,z,,,,009,001,2024-11-24_16h24.31.303,Lexical Decision Making,2024.1.5,None,2024-11-24 16h24.45.083390 +0530,
s m o r n,0.0,non-word,z,1,66,166,51,137.52654760000587,,,,,,,,,137.5110868000047,137.52654760000587,137.52654760000587,138.02514800000063,138.0931697000051,z,0.5585590999980923,None,z,z,,,,009,001,2024-11-24_16h24.31.303,Lexical Decision Making,2024.1.5,None,2024-11-24 16h24.45.083390 +0530,
c h a i r,1.0,neutral,m,1,67,167,7,138.10814390001178,,,,,,,,,138.09369430001243,138.10814390001178,138.10814390001178,138.62646890000906,139.02316070000234,m,0.9023241000104463,None,m,m,,,,009,001,2024-11-24_16h24.31.303,Lexical Decision Making,2024.1.5,None,2024-11-24 16h24.45.083390 +0530,
p l a r k,0.0,non-word,z,1,68,168,16,139.03837690000364,,,,,,,,,139.02378030000546,139.03837690000364,139.03837690000364,139.5381359000021,139.6057664000109,z,0.5659723999997368,None,z,z,,,,009,001,2024-11-24_16h24.31.303,Lexical Decision Making,2024.1.5,None,2024-11-24 16h24.45.083390 +0530,
g r i n d l e,0.0,non-word,z,1,69,169,17,139.61999240001023,,,,,,,,,139.60636740000336,139.61999240001023,139.61999240001023,140.11962100000528,140.31997790001333,z,0.6983449999970617,None,z,z,,,,009,001,2024-11-24_16h24.31.303,Lexical Decision Making,2024.1.5,None,2024-11-24 16h24.45.083390 +0530,
d r e a m,1.0,positive,m,1,70,170,9,140.3355004000041,,,,,,,,,140.3205020000023,140.3355004000041,140.3355004000041,140.85057960000995,140.984678000008,m,0.6320172999985516,None,m,m,,,,009,001,2024-11-24_16h24.31.303,Lexical Decision Making,2024.1.5,None,2024-11-24 16h24.45.083390 +0530,
w a r,1.0,negative,m,1,71,171,67,141.0005431000027,,,,,,,,,140.9853931000107,141.0005431000027,141.0005431000027,141.51520540000638,141.5007617000083,m,0.49329349999607075,None,m,m,,,,009,001,2024-11-24_16h24.31.303,Lexical Decision Making,2024.1.5,None,2024-11-24 16h24.45.083390 +0530,
g r i e f,1.0,negative,m,1,72,172,81,141.51520540000638,,,,,,,,,141.5012798000098,141.51520540000638,141.51520540000638,142.0140054000076,142.0481584000081,m,0.5228912999882596,None,m,m,,,,009,001,2024-11-24_16h24.31.303,Lexical Decision Making,2024.1.5,None,2024-11-24 16h24.45.083390 +0530,
c e l e b r a t i o n,1.0,positive,m,1,73,173,75,142.06362290000834,,,,,,,,,142.04868250001164,142.06362290000834,142.06362290000834,142.56264820000797,142.58060870000918,m,0.5046115000004647,None,m,m,,,,009,001,2024-11-24_16h24.31.303,Lexical Decision Making,2024.1.5,None,2024-11-24 16h24.45.083390 +0530,
c h i n d l e,0.0,non-word,z,1,74,174,8,142.5959867000056,,,,,,,,,142.58116950000112,142.5959867000056,142.5959867000056,143.1114249000093,143.19513330000336,z,0.5957454000017606,None,z,z,,,,009,001,2024-11-24_16h24.31.303,Lexical Decision Making,2024.1.5,None,2024-11-24 16h24.45.083390 +0530,
s w o r p y,0.0,non-word,z,1,75,175,69,143.2110204000055,,,,,,,,,143.19565760000842,143.2110204000055,143.2110204000055,143.7265441000054,143.85985410001012,z,0.6423850999999559,None,z,z,,,,009,001,2024-11-24_16h24.31.303,Lexical Decision Making,2024.1.5,None,2024-11-24 16h24.45.083390 +0530,
d e s p a i r,1.0,negative,m,1,76,176,56,143.87592760000553,,,,,,,,,143.86038410000037,143.87592760000553,143.87592760000553,144.3742329000088,144.45811060001142,m,0.5809321999986423,None,m,m,,,,009,001,2024-11-24_16h24.31.303,Lexical Decision Making,2024.1.5,None,2024-11-24 16h24.45.083390 +0530,
p e a c e,1.0,positive,m,1,77,177,97,144.47385540000687,,,,,,,,,144.45864000001166,144.47385540000687,144.47385540000687,144.97649870000896,145.0406512000045,m,0.5584762999933446,None,m,m,,,,009,001,2024-11-24_16h24.31.303,Lexical Decision Making,2024.1.5,None,2024-11-24 16h24.45.083390 +0530,
m u r k l e,0.0,non-word,z,1,78,178,66,145.05522420001216,,,,,,,,,145.04117260000203,145.05522420001216,145.05522420001216,145.55460750000202,145.69207010000537,z,0.6322119999967981,None,z,z,,,,009,001,2024-11-24_16h24.31.303,Lexical Decision Making,2024.1.5,None,2024-11-24 16h24.45.083390 +0530,
l a m p,1.0,neutral,m,1,79,179,42,145.70375480000803,,,,,,,,,145.69315400000778,145.70375480000803,145.70375480000803,146.21871020000253,146.26987440000812,m,0.5615822000108892,None,m,m,,,,009,001,2024-11-24_16h24.31.303,Lexical Decision Making,2024.1.5,None,2024-11-24 16h24.45.083390 +0530,
b l o r p,0.0,non-word,z,1,80,180,84,146.2859090000129,,,,,,,,,146.2704112000065,146.2859090000129,146.2859090000129,146.8011070000066,146.91825630000676,z,0.615595299997949,None,z,z,,,,009,001,2024-11-24_16h24.31.303,Lexical Decision Making,2024.1.5,None,2024-11-24 16h24.45.083390 +0530,
p e n c i l,1.0,neutral,m,1,81,181,37,146.93423130000883,,,,,,,,,146.91877640000894,146.93423130000883,146.93423130000883,,147.40062190000026,m,0.4529932000004919,None,m,m,,,,009,001,2024-11-24_16h24.31.303,Lexical Decision Making,2024.1.5,None,2024-11-24 16h24.45.083390 +0530,
b o o k,1.0,neutral,m,1,82,182,22,147.4161807000055,,,,,,,,,147.40114320001157,147.4161807000055,147.4161807000055,147.93114840000635,147.93256510001083,m,0.5008487000013702,None,m,m,,,,009,001,2024-11-24_16h24.31.303,Lexical Decision Making,2024.1.5,None,2024-11-24 16h24.45.083390 +0530,
b l o r p,0.0,non-word,z,1,83,183,5,147.95132290000038,,,,,,,,,147.93315989999974,147.95132290000038,147.95132290000038,148.4630305000028,148.48097810000763,z,0.521878800005652,None,z,z,,,,009,001,2024-11-24_16h24.31.303,Lexical Decision Making,2024.1.5,None,2024-11-24 16h24.45.083390 +0530,
w i n d o w,1.0,neutral,m,1,84,184,80,148.49623870001233,,,,,,,,,148.48152300000947,148.49623870001233,148.49623870001233,,148.9461743000138,m,0.448081499998807,None,m,m,,,,009,001,2024-11-24_16h24.31.303,Lexical Decision Making,2024.1.5,None,2024-11-24 16h24.45.083390 +0530,
g l o r b y,0.0,non-word,z,1,85,185,28,148.9615019000048,,,,,,,,,148.94670000000042,148.9615019000048,148.9615019000048,149.4597766000079,149.44510310000624,z,0.47205109999049455,None,z,z,,,,009,001,2024-11-24_16h24.31.303,Lexical Decision Making,2024.1.5,None,2024-11-24 16h24.45.083390 +0530,
c l i b b e t,0.0,non-word,z,1,86,186,12,149.4597766000079,,,,,,,,,149.44564440000977,149.4597766000079,149.4597766000079,149.9596933000139,150.0598791000084,z,0.5890015999902971,None,z,z,,,,009,001,2024-11-24_16h24.31.303,Lexical Decision Making,2024.1.5,None,2024-11-24 16h24.45.083390 +0530,
c a r p e t,1.0,neutral,m,1,87,187,85,150.07519960000354,,,,,,,,,150.06040050000593,150.07519960000354,150.07519960000354,150.57394320001185,150.62378730000637,m,0.5450284999969881,None,m,m,,,,009,001,2024-11-24_16h24.31.303,Lexical Decision Making,2024.1.5,None,2024-11-24 16h24.45.083390 +0530,
c l o u d,1.0,neutral,m,1,88,188,94,150.6409457000118,,,,,,,,,150.62432610000542,150.6409457000118,150.6409457000118,151.13811910001095,151.17362960000173,m,0.528575299991644,None,m,m,,,,009,001,2024-11-24_16h24.31.303,Lexical Decision Making,2024.1.5,None,2024-11-24 16h24.45.083390 +0530,
s m i l e,1.0,positive,m,1,89,189,92,151.18906780000543,,,,,,,,,151.17417180001212,151.18906780000543,151.18906780000543,,151.62254890000622,m,0.4321139000094263,None,m,m,,,,009,001,2024-11-24_16h24.31.303,Lexical Decision Making,2024.1.5,None,2024-11-24 16h24.45.083390 +0530,
s a d n e s s,1.0,negative,m,1,90,190,65,151.6375732000015,,,,,,,,,151.62307620000502,151.6375732000015,151.6375732000015,152.15301560000808,152.22102480000467,m,0.5729029000067385,None,m,m,,,,009,001,2024-11-24_16h24.31.303,Lexical Decision Making,2024.1.5,None,2024-11-24 16h24.45.083390 +0530,
s m a g l e,0.0,non-word,z,1,91,191,53,152.2359359000111,,,,,,,,,152.2215458000137,152.2359359000111,152.2359359000111,152.75139230000786,152.83559510001214,z,0.5894141000026138,None,z,z,,,,009,001,2024-11-24_16h24.31.303,Lexical Decision Making,2024.1.5,None,2024-11-24 16h24.45.083390 +0530,
c r y,1.0,negative,m,1,92,192,61,152.85146580000583,,,,,,,,,152.83633050000935,152.85146580000583,152.85146580000583,153.34977010000148,153.33536480000475,m,0.4748923000006471,None,m,m,,,,009,001,2024-11-24_16h24.31.303,Lexical Decision Making,2024.1.5,None,2024-11-24 16h24.45.083390 +0530,
c o m f o r t,1.0,positive,m,1,93,193,59,153.34977010000148,,,,,,,,,153.3361658000067,153.34977010000148,153.34977010000148,,153.83311450001202,m,0.4672469000070123,None,m,m,,,,009,001,2024-11-24_16h24.31.303,Lexical Decision Making,2024.1.5,None,2024-11-24 16h24.45.083390 +0530,
c a l e n d a r,1.0,neutral,m,1,94,194,86,153.84829930000706,,,,,,,,,153.83364430000074,153.84829930000706,153.84829930000706,154.36306750000222,154.39830340001208,m,0.5354029000009177,None,m,m,,,,009,001,2024-11-24_16h24.31.303,Lexical Decision Making,2024.1.5,None,2024-11-24 16h24.45.083390 +0530,
q u i b l e n,0.0,non-word,z,1,95,195,91,154.41359710000688,,,,,,,,,154.3991253000131,154.41359710000688,154.41359710000688,154.92820160000701,154.99684620001062,z,0.5817284000077052,None,z,z,,,,009,001,2024-11-24_16h24.31.303,Lexical Decision Making,2024.1.5,None,2024-11-24 16h24.45.083390 +0530,
c r i t i c i s m,1.0,negative,m,1,96,196,26,155.01194410001335,,,,,,,,,154.99736960000882,155.01194410001335,155.01194410001335,155.5269522000017,155.52800109999953,m,0.4998201000125846,None,m,m,,,,009,001,2024-11-24_16h24.31.303,Lexical Decision Making,2024.1.5,None,2024-11-24 16h24.45.083390 +0530,
c h e e r f u l,1.0,positive,m,1,97,197,43,155.54358720000891,,,,,,,,,155.5285270000022,155.54358720000891,155.54358720000891,,155.97802290000254,z,0.4308504000073299,None,z,m,,,,009,001,2024-11-24_16h24.31.303,Lexical Decision Making,2024.1.5,None,2024-11-24 16h24.45.083390 +0530,
b o t t l e,1.0,neutral,m,1,98,198,58,155.9926017000107,,,,,,,,,155.9785455000092,155.9926017000107,155.9926017000107,156.50826850000885,156.57528830000956,m,0.5696944000083022,None,m,m,,,,009,001,2024-11-24_16h24.31.303,Lexical Decision Making,2024.1.5,None,2024-11-24 16h24.45.083390 +0530,
p l a n e t,1.0,neutral,m,1,99,199,47,156.59103890000551,,,,,,,,,156.57581530000607,156.59103890000551,156.59103890000551,157.1059690000111,157.09182060000603,m,0.4963473999960115,None,m,m,,,,009,001,2024-11-24_16h24.31.303,Lexical Decision Making,2024.1.5,None,2024-11-24 16h24.45.083390 +0530,
c h i n d l e,0.0,non-word,z,2,0,200,8,157.1059690000111,,,,,,,,,157.09255710001162,157.1059690000111,157.1059690000111,157.6047774000035,157.75489340000786,z,0.6448674999992363,None,z,z,,,,009,001,2024-11-24_16h24.31.303,Lexical Decision Making,2024.1.5,None,2024-11-24 16h24.45.083390 +0530,
l a w v e r,0.0,non-word,z,2,1,201,76,157.77076180001313,,,,,,,,,157.7557816000044,157.77076180001313,157.77076180001313,158.27002380001068,158.42098400001123,z,0.6396857000072487,None,z,z,,,,009,001,2024-11-24_16h24.31.303,Lexical Decision Making,2024.1.5,None,2024-11-24 16h24.45.083390 +0530,
e x c i t e d,1.0,positive,m,2,2,202,72,158.43670320000092,,,,,,,,,158.42199380000238,158.43670320000092,158.43670320000092,,158.90252220000548,m,0.4540238000045065,None,m,m,,,,009,001,2024-11-24_16h24.31.303,Lexical Decision Making,2024.1.5,None,2024-11-24 16h24.45.083390 +0530,
m i s e r y,1.0,negative,m,2,3,203,34,158.91814890000387,,,,,,,,,158.90305290000106,158.91814890000387,158.91814890000387,,159.3844941000134,m,0.45712449999700766,None,m,m,,,,009,001,2024-11-24_16h24.31.303,Lexical Decision Making,2024.1.5,None,2024-11-24 16h24.45.083390 +0530,
b l o r p,0.0,non-word,z,2,4,204,84,159.3997675000137,,,,,,,,,159.38501640000322,159.3997675000137,159.3997675000137,159.9149807000067,159.9997599000053,z,0.5927964000002248,None,z,z,,,,009,001,2024-11-24_16h24.31.303,Lexical Decision Making,2024.1.5,None,2024-11-24 16h24.45.083390 +0530,
t w o r i k,0.0,non-word,z,2,5,205,93,160.01437870001246,,,,,,,,,160.00030330001027,160.01437870001246,160.01437870001246,,160.4656612000108,z,0.44784180000715423,None,z,z,,,,009,001,2024-11-24_16h24.31.303,Lexical Decision Making,2024.1.5,None,2024-11-24 16h24.45.083390 +0530,
g r i e f,1.0,negative,m,2,6,206,81,160.48020270001143,,,,,,,,,160.46619660001306,160.48020270001143,160.48020270001143,160.99533820000943,161.0796502000012,m,0.5911965000123018,None,m,m,,,,009,001,2024-11-24_16h24.31.303,Lexical Decision Making,2024.1.5,None,2024-11-24 16h24.45.083390 +0530,
h a p p y,1.0,positive,m,2,7,207,21,161.09526790000382,,,,,,,,,161.08016680000583,161.09526790000382,161.09526790000382,,161.57849750001333,m,0.47115800000028685,None,m,m,,,,009,001,2024-11-24_16h24.31.303,Lexical Decision Making,2024.1.5,None,2024-11-24 16h24.45.083390 +0530,
g r i e f,1.0,negative,m,2,8,208,50,161.59375510000973,,,,,,,,,161.57929950000835,161.59375510000973,161.59375510000973,,162.07683360000374,m,0.4791793000040343,None,m,m,,,,009,001,2024-11-24_16h24.31.303,Lexical Decision Making,2024.1.5,None,2024-11-24 16h24.45.083390 +0530,
p e a c e,1.0,positive,m,2,9,209,97,162.09247700001288,,,,,,,,,162.07735700000194,162.09247700001288,162.09247700001288,,162.57555770000909,m,0.47618250000232365,None,m,m,,,,009,001,2024-11-24_16h24.31.303,Lexical Decision Making,2024.1.5,None,2024-11-24 16h24.45.083390 +0530,
s w o r p y,0.0,non-word,z,2,10,210,69,162.59123780000664,,,,,,,,,162.57607340000686,162.59123780000664,162.59123780000664,163.10621370001172,163.17388470000878,z,0.5707282999937888,None,z,z,,,,009,001,2024-11-24_16h24.31.303,Lexical Decision Making,2024.1.5,None,2024-11-24 16h24.45.083390 +0530,
m o u n t a i n,1.0,neutral,m,2,11,211,71,163.18966870001168,,,,,,,,,163.17442100000335,163.18966870001168,163.18966870001168,,163.65623030001007,m,0.45908800000324845,None,m,m,,,,009,001,2024-11-24_16h24.31.303,Lexical Decision Making,2024.1.5,None,2024-11-24 16h24.45.083390 +0530,
s m i l e,1.0,positive,m,2,12,212,55,163.67193260000204,,,,,,,,,163.65675340000598,163.67193260000204,163.67193260000204,,164.13815850000537,m,0.4621060000063153,None,m,m,,,,009,001,2024-11-24_16h24.31.303,Lexical Decision Making,2024.1.5,None,2024-11-24 16h24.45.083390 +0530,
s o r r o w,1.0,negative,m,2,13,213,33,164.1530688000057,,,,,,,,,164.13868080000975,164.1530688000057,164.1530688000057,,164.62008710000373,m,0.4537670999998227,None,m,m,,,,009,001,2024-11-24_16h24.31.303,Lexical Decision Making,2024.1.5,None,2024-11-24 16h24.45.083390 +0530,
m e t r o,1.0,neutral,m,2,14,214,96,164.63577560000704,,,,,,,,,164.62063010000566,164.63577560000704,164.63577560000704,165.15031450000242,165.13545720001275,m,0.4846404999989318,None,m,m,,,,009,001,2024-11-24_16h24.31.303,Lexical Decision Making,2024.1.5,None,2024-11-24 16h24.45.083390 +0530,
t r a i n,1.0,neutral,m,2,15,215,40,165.15031450000242,,,,,,,,,165.13600000001315,165.15031450000242,165.15031450000242,165.65019020000182,165.6343909999996,m,0.48276569999870844,None,m,m,,,,009,001,2024-11-24_16h24.31.303,Lexical Decision Making,2024.1.5,None,2024-11-24 16h24.45.083390 +0530,
p a i n,1.0,negative,m,2,16,216,83,165.65019020000182,,,,,,,,,165.6349198000098,165.65019020000182,165.65019020000182,166.16420940001262,166.1826354000077,m,0.5210421999945538,None,m,m,,,,009,001,2024-11-24_16h24.31.303,Lexical Decision Making,2024.1.5,None,2024-11-24 16h24.45.083390 +0530,
c h e e r f u l,1.0,positive,m,2,17,217,43,166.19816650000575,,,,,,,,,166.1831552000076,166.19816650000575,166.19816650000575,166.71344020000834,166.7479025000066,z,0.5483701999910409,None,z,m,,,,009,001,2024-11-24_16h24.31.303,Lexical Decision Making,2024.1.5,None,2024-11-24 16h24.45.083390 +0530,
g r i n d l e,0.0,non-word,z,2,18,218,17,166.76316200000292,,,,,,,,,166.7484184000059,166.76316200000292,166.76316200000292,,167.19625530000485,m,0.42439059999014717,None,m,z,,,,009,001,2024-11-24_16h24.31.303,Lexical Decision Making,2024.1.5,None,2024-11-24 16h24.45.083390 +0530,
c h a i r,1.0,neutral,m,2,19,219,7,167.21214610000607,,,,,,,,,167.19678290000593,167.21214610000607,167.21214610000607,167.7274008000095,168.4431353000109,m,1.2240772000077413,None,m,m,,,,009,001,2024-11-24_16h24.31.303,Lexical Decision Making,2024.1.5,None,2024-11-24 16h24.45.083390 +0530,
k i n d n e s s,1.0,positive,m,2,20,220,82,168.45844200000283,,,,,,,,,168.44366810000793,168.45844200000283,168.45844200000283,168.97343730001012,169.9715986000083,m,1.5116089999937685,None,m,m,,,,009,001,2024-11-24_16h24.31.303,Lexical Decision Making,2024.1.5,None,2024-11-24 16h24.45.083390 +0530,
l o v e,1.0,positive,m,2,21,221,0,169.98658470000373,,,,,,,,,169.97213200000988,169.98658470000373,169.98658470000373,170.48551340000995,170.6362122000137,m,0.6385644000110915,None,m,m,,,,009,001,2024-11-24_16h24.31.303,Lexical Decision Making,2024.1.5,None,2024-11-24 16h24.45.083390 +0530,
b o t t l e,1.0,neutral,m,2,22,222,58,170.6517707000021,,,,,,,,,170.63674570000148,170.6517707000021,170.6517707000021,171.15054370000144,171.2345137000084,m,0.5660058999928879,None,m,m,,,,009,001,2024-11-24_16h24.31.303,Lexical Decision Making,2024.1.5,None,2024-11-24 16h24.45.083390 +0530,
s u n s h i n e,1.0,positive,m,2,23,223,30,171.250086,,,,,,,,,171.23513310001,171.250086,171.250086,171.76536930000293,171.79959770001005,m,0.5464540999964811,None,m,m,,,,009,001,2024-11-24_16h24.31.303,Lexical Decision Making,2024.1.5,None,2024-11-24 16h24.45.083390 +0530,
z o m p r e,0.0,non-word,z,2,24,224,73,171.81502560000808,,,,,,,,,171.8001721000037,171.81502560000808,171.81502560000808,172.31419509999978,172.44764200001373,z,0.6166303000063635,None,z,z,,,,009,001,2024-11-24_16h24.31.303,Lexical Decision Making,2024.1.5,None,2024-11-24 16h24.45.083390 +0530,
p l a n e t,1.0,neutral,m,2,25,225,47,172.46323520000442,,,,,,,,,172.4481620000006,172.46323520000442,172.46323520000442,172.97945670000627,173.04619720000483,m,0.5788564999966184,None,m,m,,,,009,001,2024-11-24_16h24.31.303,Lexical Decision Making,2024.1.5,None,2024-11-24 16h24.45.083390 +0530,
s u c c e s s,1.0,positive,m,2,26,226,35,173.0615342000092,,,,,,,,,173.04672150000988,173.0615342000092,173.0615342000092,173.5602491000027,173.54873450000014,m,0.4761487999930978,None,m,m,,,,009,001,2024-11-24_16h24.31.303,Lexical Decision Making,2024.1.5,None,2024-11-24 16h24.45.083390 +0530,
s m a g l e,0.0,non-word,z,2,27,227,53,173.5602491000027,,,,,,,,,173.54926520001027,173.5602491000027,173.5602491000027,174.07574960000056,174.2095532000094,z,0.6398956000048202,None,z,z,,,,009,001,2024-11-24_16h24.31.303,Lexical Decision Making,2024.1.5,None,2024-11-24 16h24.45.083390 +0530,
s a d n e s s,1.0,negative,m,2,28,228,88,174.22552050001104,,,,,,,,,174.21008980000624,174.22552050001104,174.22552050001104,174.74040690000402,174.79124380000576,m,0.5524942000047304,None,m,m,,,,009,001,2024-11-24_16h24.31.303,Lexical Decision Making,2024.1.5,None,2024-11-24 16h24.45.083390 +0530,
l a m p,1.0,neutral,m,2,29,229,18,174.80726810000488,,,,,,,,,174.79178940001293,174.80726810000488,174.80726810000488,175.3220180000062,175.33968710000045,m,0.5302806999970926,None,m,m,,,,009,001,2024-11-24_16h24.31.303,Lexical Decision Making,2024.1.5,None,2024-11-24 16h24.45.083390 +0530,
c a l e n d a r,1.0,neutral,m,2,30,230,86,175.35566390000167,,,,,,,,,175.3402313000115,175.35566390000167,175.35566390000167,175.8705966000125,175.90533069999947,m,0.5345352000003913,None,m,m,,,,009,001,2024-11-24_16h24.31.303,Lexical Decision Making,2024.1.5,None,2024-11-24 16h24.45.083390 +0530,
g r a t i t u d e,1.0,positive,m,2,31,231,41,175.92069940001238,,,,,,,,,175.9058742000052,175.92069940001238,175.92069940001238,176.43578060000436,176.50378150001052,m,0.5717662000097334,None,m,m,,,,009,001,2024-11-24_16h24.31.303,Lexical Decision Making,2024.1.5,None,2024-11-24 16h24.45.083390 +0530,
g r i e f,1.0,negative,m,2,32,232,62,176.5189240000036,,,,,,,,,176.50431160000153,176.5189240000036,176.5189240000036,177.0342568000051,177.06836940000358,m,0.5358949000074062,None,m,m,,,,009,001,2024-11-24_16h24.31.303,Lexical Decision Making,2024.1.5,None,2024-11-24 16h24.45.083390 +0530,
c r i o u s,0.0,non-word,z,2,33,233,99,177.0841846000112,,,,,,,,,177.06891130001168,177.0841846000112,177.0841846000112,177.59932690000278,177.74977910000598,z,0.663359500002116,None,z,z,,,,009,001,2024-11-24_16h24.31.303,Lexical Decision Making,2024.1.5,None,2024-11-24 16h24.45.083390 +0530,
p e n c i l,1.0,neutral,m,2,34,234,24,177.76539940001385,,,,,,,,,177.75029850000283,177.76539940001385,177.76539940001385,,178.23227010000846,m,0.46515740000177175,None,m,m,,,,009,001,2024-11-24_16h24.31.303,Lexical Decision Making,2024.1.5,None,2024-11-24 16h24.45.083390 +0530,
j o y f u l,1.0,positive,m,2,35,235,19,178.24741670000367,,,,,,,,,178.2328622000059,178.24741670000367,178.24741670000367,178.74631860000954,178.79694490000838,m,0.5330613999976777,None,m,m,,,,009,001,2024-11-24_16h24.31.303,Lexical Decision Making,2024.1.5,None,2024-11-24 16h24.45.083390 +0530,
f a i l u r e,1.0,negative,m,2,36,236,77,178.81254820000322,,,,,,,,,178.7974710000126,178.81254820000322,178.81254820000322,179.32821420000982,179.42931260001205,m,0.6015208000026178,None,m,m,,,,009,001,2024-11-24_16h24.31.303,Lexical Decision Making,2024.1.5,None,2024-11-24 16h24.45.083390 +0530,
g r u f f i l,0.0,non-word,z,2,37,237,49,179.44439280001097,,,,,,,,,179.42985300000873,179.44439280001097,179.44439280001097,179.9429639000009,180.04385850000835,z,0.59645179999643,None,z,z,,,,009,001,2024-11-24_16h24.31.303,Lexical Decision Making,2024.1.5,None,2024-11-24 16h24.45.083390 +0530,
c l o c k,1.0,neutral,m,2,38,238,20,180.05937480001012,,,,,,,,,180.04438410000876,180.05937480001012,180.05937480001012,180.55805210000835,180.64205070000025,m,0.5685068999882787,None,m,m,,,,009,001,2024-11-24_16h24.31.303,Lexical Decision Making,2024.1.5,None,2024-11-24 16h24.45.083390 +0530,
d e s p a i r,1.0,negative,m,2,39,239,56,180.65834000000905,,,,,,,,,180.64258730001166,180.65834000000905,180.65834000000905,181.1731034000113,181.20725410000887,m,0.5362878000014462,None,m,m,,,,009,001,2024-11-24_16h24.31.303,Lexical Decision Making,2024.1.5,None,2024-11-24 16h24.45.083390 +0530,
d e l i g h t,1.0,positive,m,2,40,240,39,181.22250590000476,,,,,,,,,181.2077896000119,181.22250590000476,181.22250590000476,181.72219960000075,181.75593520000984,m,0.5321724999957951,None,m,m,,,,009,001,2024-11-24_16h24.31.303,Lexical Decision Making,2024.1.5,None,2024-11-24 16h24.45.083390 +0530,
c a b l e,1.0,neutral,m,2,41,241,78,181.77108370000497,,,,,,,,,181.75646330000018,181.77108370000497,181.77108370000497,182.28634700000111,182.58653340001183,m,0.8006300999986706,None,m,m,,,,009,001,2024-11-24_16h24.31.303,Lexical Decision Making,2024.1.5,None,2024-11-24 16h24.45.083390 +0530,
e x c i t e d,1.0,positive,m,2,42,242,10,182.602618600009,,,,,,,,,182.58706119999988,182.602618600009,182.602618600009,183.11764270000276,183.20150650000141,m,0.5859262000012677,None,m,m,,,,009,001,2024-11-24_16h24.31.303,Lexical Decision Making,2024.1.5,None,2024-11-24 16h24.45.083390 +0530,
c l o c k,1.0,neutral,m,2,43,243,48,183.21718500000134,,,,,,,,,183.2020279000135,183.21718500000134,183.21718500000134,183.73233720001008,183.9664291000081,m,0.7479472000122769,None,m,m,,,,009,001,2024-11-24_16h24.31.303,Lexical Decision Making,2024.1.5,None,2024-11-24 16h24.45.083390 +0530,
d r i n t,0.0,non-word,z,2,44,244,36,183.98172200001136,,,,,,,,,183.96694850000495,183.98172200001136,183.98172200001136,184.4973517000035,184.59846120000293,z,0.6111146000039298,None,z,z,,,,009,001,2024-11-24_16h24.31.303,Lexical Decision Making,2024.1.5,None,2024-11-24 16h24.45.083390 +0530,
s m o r n,0.0,non-word,z,2,45,245,51,184.61345610000717,,,,,,,,,184.59919380000792,184.61345610000717,184.61345610000717,185.12853470000846,185.12961370000266,m,0.5026102999981958,None,m,z,,,,009,001,2024-11-24_16h24.31.303,Lexical Decision Making,2024.1.5,None,2024-11-24 16h24.45.083390 +0530,
q u i b l e n,0.0,non-word,z,2,46,246,91,185.1456244000001,,,,,,,,,185.13015650000307,185.1456244000001,185.1456244000001,185.66064840000763,185.86106350000773,z,0.7039804999949411,None,z,z,,,,009,001,2024-11-24_16h24.31.303,Lexical Decision Making,2024.1.5,None,2024-11-24 16h24.45.083390 +0530,
b o o k,1.0,neutral,m,2,47,247,22,185.87648320000153,,,,,,,,,185.86159000000043,185.87648320000153,185.87648320000153,186.3918820000108,186.55921330000274,m,0.6666899999981979,None,m,m,,,,009,001,2024-11-24_16h24.31.303,Lexical Decision Making,2024.1.5,None,2024-11-24 16h24.45.083390 +0530,
l a m p,1.0,neutral,m,2,48,248,42,186.57507440001064,,,,,,,,,186.55975100000796,186.57507440001064,186.57507440001064,187.08982260001358,187.17396949999966,m,0.5896863999951165,None,m,m,,,,009,001,2024-11-24_16h24.31.303,Lexical Decision Making,2024.1.5,None,2024-11-24 16h24.45.083390 +0530,
c r y,1.0,negative,m,2,49,249,61,187.18956950001302,,,,,,,,,187.17451900000742,187.18956950001302,187.18956950001302,187.68848690000596,187.7556503000087,m,0.5609277000039583,None,m,m,,,,009,001,2024-11-24_16h24.31.303,Lexical Decision Making,2024.1.5,None,2024-11-24 16h24.45.083390 +0530,
s a d n e s s,1.0,negative,m,2,50,250,65,187.77184350001335,,,,,,,,,187.75617440001224,187.77184350001335,187.77184350001335,188.28688180001336,188.33767730000545,m,0.553014200006146,None,m,m,,,,009,001,2024-11-24_16h24.31.303,Lexical Decision Making,2024.1.5,None,2024-11-24 16h24.45.083390 +0530,
b l o r p,0.0,non-word,z,2,51,251,60,188.35407850000774,,,,,,,,,188.3382025000028,188.35407850000774,188.35407850000774,188.8686172000016,189.10208350000903,z,0.7333091000036802,None,z,z,,,,009,001,2024-11-24_16h24.31.303,Lexical Decision Making,2024.1.5,None,2024-11-24 16h24.45.083390 +0530,
h o p e,1.0,positive,m,2,52,252,46,189.11821880000934,,,,,,,,,189.10262320000038,189.11821880000934,189.11821880000934,189.6330222000106,190.3984530000016,m,1.2675200999947265,None,m,m,,,,009,001,2024-11-24_16h24.31.303,Lexical Decision Making,2024.1.5,None,2024-11-24 16h24.45.083390 +0530,
c e l e b r a t i o n,1.0,positive,m,2,53,253,75,190.4147045000136,,,,,,,,,190.39899330001208,190.4147045000136,190.4147045000136,,190.81443460000446,m,0.39527219999581575,None,m,m,,,,009,001,2024-11-24_16h24.31.303,Lexical Decision Making,2024.1.5,None,2024-11-24 16h24.45.083390 +0530,
a n g e r,1.0,negative,m,2,54,254,44,190.8305023000139,,,,,,,,,190.81498190001003,190.8305023000139,190.8305023000139,191.34520400001202,191.56302140001208,m,0.7177933999919333,None,m,m,,,,009,001,2024-11-24_16h24.31.303,Lexical Decision Making,2024.1.5,None,2024-11-24 16h24.45.083390 +0530,
d r e a m,1.0,positive,m,2,55,255,9,191.57837060000747,,,,,,,,,191.56383540001116,191.57837060000747,191.57837060000747,192.0932971000002,192.69249400000263,m,1.1127619999897433,None,m,m,,,,009,001,2024-11-24_16h24.31.303,Lexical Decision Making,2024.1.5,None,2024-11-24 16h24.45.083390 +0530,
d r i n t,0.0,non-word,z,2,56,256,23,192.70799400001124,,,,,,,,,192.69301730000007,192.70799400001124,192.70799400001124,193.22309900000982,193.30763410001236,z,0.587056999997003,None,z,z,,,,009,001,2024-11-24_16h24.31.303,Lexical Decision Making,2024.1.5,None,2024-11-24 16h24.45.083390 +0530,
c r i t i c i s m,1.0,negative,m,2,57,257,26,193.32309600000735,,,,,,,,,193.3081674000132,193.32309600000735,193.32309600000735,193.83810440001253,193.83921630000987,m,0.5087291999952868,None,m,m,,,,009,001,2024-11-24_16h24.31.303,Lexical Decision Making,2024.1.5,None,2024-11-24 16h24.45.083390 +0530,
a p p l e,1.0,neutral,m,2,58,258,32,193.85463650000747,,,,,,,,,193.83976450000773,193.85463650000747,193.85463650000747,194.3702379000024,194.67016850000073,m,0.8078596999985166,None,m,m,,,,009,001,2024-11-24_16h24.31.303,Lexical Decision Making,2024.1.5,None,2024-11-24 16h24.45.083390 +0530,
t a b l e,1.0,neutral,m,2,59,259,6,194.68631330000062,,,,,,,,,194.67071670001314,194.68631330000062,194.68631330000062,195.2020157000079,195.18617550001363,m,0.48314949999621604,None,m,m,,,,009,001,2024-11-24_16h24.31.303,Lexical Decision Making,2024.1.5,None,2024-11-24 16h24.45.083390 +0530,
v i c t o r y,1.0,positive,m,2,60,260,25,195.2020157000079,,,,,,,,,195.18669370000134,195.2020157000079,195.2020157000079,195.71627940000326,195.86820300000545,m,0.6488547000044491,None,m,m,,,,009,001,2024-11-24_16h24.31.303,Lexical Decision Making,2024.1.5,None,2024-11-24 16h24.45.083390 +0530,
z a r f e t,0.0,non-word,z,2,61,261,31,195.88288970000576,,,,,,,,,195.86872790000052,195.88288970000576,195.88288970000576,196.39780620000965,196.53205030001118,z,0.6405749999976251,None,z,z,,,,009,001,2024-11-24_16h24.31.303,Lexical Decision Making,2024.1.5,None,2024-11-24 16h24.45.083390 +0530,
w i n d o w,1.0,neutral,m,2,62,262,80,196.54800750000868,,,,,,,,,196.5325773000077,196.54800750000868,196.54800750000868,,197.03080490000139,m,0.47018230000685435,None,m,m,,,,009,001,2024-11-24_16h24.31.303,Lexical Decision Making,2024.1.5,None,2024-11-24 16h24.45.083390 +0530,
l o m e b,0.0,non-word,z,2,63,263,90,197.04618270001083,,,,,,,,,197.0313412000105,197.04618270001083,197.04618270001083,197.56182570000237,197.5627674000134,z,0.5082529999926919,None,z,z,,,,009,001,2024-11-24_16h24.31.303,Lexical Decision Making,2024.1.5,None,2024-11-24 16h24.45.083390 +0530,
t r a g e d y,1.0,negative,m,2,64,264,70,197.5781535000133,,,,,,,,,197.5632944000099,197.5781535000133,197.5781535000133,198.0773509000137,198.11104310001247,m,0.5291170999989845,None,m,m,,,,009,001,2024-11-24_16h24.31.303,Lexical Decision Making,2024.1.5,None,2024-11-24 16h24.45.083390 +0530,
b l o r p,0.0,non-word,z,2,65,265,5,198.12685130001046,,,,,,,,,198.11161960000754,198.12685130001046,198.12685130001046,198.64186390000395,198.74276090000058,z,0.610059700004058,None,z,z,,,,009,001,2024-11-24_16h24.31.303,Lexical Decision Making,2024.1.5,None,2024-11-24 16h24.45.083390 +0530,
f e a r f u l,1.0,negative,m,2,66,266,98,198.7580319000117,,,,,,,,,198.74330500001088,198.7580319000117,198.7580319000117,199.27342900000804,199.27448000000732,m,0.5041573000053177,None,m,m,,,,009,001,2024-11-24_16h24.31.303,Lexical Decision Making,2024.1.5,None,2024-11-24 16h24.45.083390 +0530,
c a r p e t,1.0,neutral,m,2,67,267,85,199.29051660001278,,,,,,,,,199.27501090000442,199.29051660001278,199.29051660001278,199.80543580000813,199.83962830000382,m,0.5331901000026846,None,m,m,,,,009,001,2024-11-24_16h24.31.303,Lexical Decision Making,2024.1.5,None,2024-11-24 16h24.45.083390 +0530,
v o b l i t,0.0,non-word,z,2,68,268,38,199.85506180000084,,,,,,,,,199.84016230000998,199.85506180000084,199.85506180000084,200.3543051000015,200.37114160000056,z,0.5037962999922456,None,z,z,,,,009,001,2024-11-24_16h24.31.303,Lexical Decision Making,2024.1.5,None,2024-11-24 16h24.45.083390 +0530,
p l a r k,0.0,non-word,z,2,69,269,45,200.3875199000031,,,,,,,,,200.37168750001,200.3875199000031,200.3875199000031,200.90210550000484,200.9696440000116,z,0.5713267999963136,None,z,z,,,,009,001,2024-11-24_16h24.31.303,Lexical Decision Making,2024.1.5,None,2024-11-24 16h24.45.083390 +0530,
r e g r e t,1.0,negative,m,2,70,270,64,200.98568950001209,,,,,,,,,200.97016430000076,200.98568950001209,200.98568950001209,201.50058140000328,201.60151690000203,m,0.6131935000012163,None,m,m,,,,009,001,2024-11-24_16h24.31.303,Lexical Decision Making,2024.1.5,None,2024-11-24 16h24.45.083390 +0530,
l o s s,1.0,negative,m,2,71,271,29,201.61716290000186,,,,,,,,,201.6020467000053,201.61716290000186,201.61716290000186,202.1321905000077,202.2494754000072,m,0.6262982999905944,None,m,m,,,,009,001,2024-11-24_16h24.31.303,Lexical Decision Making,2024.1.5,None,2024-11-24 16h24.45.083390 +0530,
g l o r b y,0.0,non-word,z,2,72,272,28,202.26515430001018,,,,,,,,,202.24999540000863,202.26515430001018,202.26515430001018,202.76365950000763,203.24699430000328,z,0.9650532999949064,None,z,z,,,,009,001,2024-11-24_16h24.31.303,Lexical Decision Making,2024.1.5,None,2024-11-24 16h24.45.083390 +0530,
d r o n t,0.0,non-word,z,2,73,273,95,203.26259160001064,,,,,,,,,203.24752160000207,203.26259160001064,203.26259160001064,203.761227400013,203.91170200001216,z,0.6470719000062672,None,z,z,,,,009,001,2024-11-24_16h24.31.303,Lexical Decision Making,2024.1.5,None,2024-11-24 16h24.45.083390 +0530,
c h e e r,1.0,positive,m,2,74,274,63,203.92740330001106,,,,,,,,,203.91238170000724,203.92740330001106,203.92740330001106,204.42622170000686,204.9923526000057,m,1.0558359999995446,None,m,m,,,,009,001,2024-11-24_16h24.31.303,Lexical Decision Making,2024.1.5,None,2024-11-24 16h24.45.083390 +0530,
p l a r k,0.0,non-word,z,2,75,275,16,205.00758700000006,,,,,,,,,204.99294180001016,205.00758700000006,205.00758700000006,205.50647420001042,206.05620000000636,z,1.037321099996916,None,z,z,,,,009,001,2024-11-24_16h24.31.303,Lexical Decision Making,2024.1.5,None,2024-11-24 16h24.45.083390 +0530,
a c h i e v e m e n t,1.0,positive,m,2,76,276,27,206.07195160000992,,,,,,,,,206.05679750000127,206.07195160000992,206.07195160000992,206.58664280000085,207.03656690000207,m,0.9483688999898732,None,m,m,,,,009,001,2024-11-24_16h24.31.303,Lexical Decision Making,2024.1.5,None,2024-11-24 16h24.45.083390 +0530,
p l o r,0.0,non-word,z,2,77,277,52,207.05249640000693,,,,,,,,,207.0370993000106,207.05249640000693,207.05249640000693,207.5673969000054,208.08387180000136,z,1.026250999988406,None,z,z,,,,009,001,2024-11-24_16h24.31.303,Lexical Decision Making,2024.1.5,None,2024-11-24 16h24.45.083390 +0530,
s m o r n,0.0,non-word,z,2,78,278,14,208.09944140000152,,,,,,,,,208.08449710000423,208.09944140000152,208.09944140000152,208.6144486000121,208.66558700001042,z,0.5630118999979459,None,z,z,,,,009,001,2024-11-24_16h24.31.303,Lexical Decision Making,2024.1.5,None,2024-11-24 16h24.45.083390 +0530,
m u r k l e,0.0,non-word,z,2,79,279,66,208.68135660000553,,,,,,,,,208.66612540000642,208.68135660000553,208.68135660000553,209.19610900001135,209.2306505000015,z,0.5340487000066787,None,z,z,,,,009,001,2024-11-24_16h24.31.303,Lexical Decision Making,2024.1.5,None,2024-11-24 16h24.45.083390 +0530,
c o m f o r t,1.0,positive,m,2,80,280,59,209.24717790000432,,,,,,,,,209.23118790000444,209.24717790000432,209.24717790000432,209.76149760000408,209.96194960000867,m,0.7029862000053981,None,m,m,,,,009,001,2024-11-24_16h24.31.303,Lexical Decision Making,2024.1.5,None,2024-11-24 16h24.45.083390 +0530,
f l o r t,0.0,non-word,z,2,81,281,11,209.9776899000135,,,,,,,,,209.96247330000915,209.9776899000135,209.9776899000135,210.4926240000059,210.89299170000595,z,0.9076014000020223,None,z,z,,,,009,001,2024-11-24_16h24.31.303,Lexical Decision Making,2024.1.5,None,2024-11-24 16h24.45.083390 +0530,
s m i l e,1.0,positive,m,2,82,282,92,210.9082025000098,,,,,,,,,210.89380610000808,210.9082025000098,210.9082025000098,211.424193800005,214.56586840000818,m,3.65566379998927,None,m,m,,,,009,001,2024-11-24_16h24.31.303,Lexical Decision Making,2024.1.5,None,2024-11-24 16h24.45.083390 +0530,
g r i n d l e,0.0,non-word,z,2,83,283,54,214.58143109999946,,,,,,,,,214.56639350000478,214.58143109999946,214.58143109999946,215.0969968999998,215.3473057000083,z,0.7546436999982689,None,z,z,,,,009,001,2024-11-24_16h24.31.303,Lexical Decision Making,2024.1.5,None,2024-11-24 16h24.45.083390 +0530,
p e a c e,1.0,positive,m,2,84,284,89,215.36320780000824,,,,,,,,,215.3478860000032,215.36320780000824,215.36320780000824,215.87819280000986,218.35561720000987,m,2.9852895000076387,None,m,m,,,,009,001,2024-11-24_16h24.31.303,Lexical Decision Making,2024.1.5,None,2024-11-24 16h24.45.083390 +0530,
b r a s k,0.0,non-word,z,2,85,285,79,218.37140410000575,,,,,,,,,218.35616049999953,218.37140410000575,218.37140410000575,218.8862891000026,219.00383890001103,z,0.6155208999989554,None,z,z,,,,009,001,2024-11-24_16h24.31.303,Lexical Decision Making,2024.1.5,None,2024-11-24 16h24.45.083390 +0530,
w i n d o w,1.0,neutral,m,2,86,286,68,219.01943480000773,,,,,,,,,219.00450590001128,219.01943480000773,219.01943480000773,219.53455550000945,220.44969760000822,m,1.4212992999964627,None,m,m,,,,009,001,2024-11-24_16h24.31.303,Lexical Decision Making,2024.1.5,None,2024-11-24 16h24.45.083390 +0530,
a n g e r,1.0,negative,m,2,87,287,15,220.46576550000464,,,,,,,,,220.4502371000126,220.46576550000464,220.46576550000464,220.980902100011,221.1480983000074,m,0.6714808999968227,None,m,m,,,,009,001,2024-11-24_16h24.31.303,Lexical Decision Making,2024.1.5,None,2024-11-24 16h24.45.083390 +0530,
p e n c i l,1.0,neutral,m,2,88,288,37,221.1634422000061,,,,,,,,,221.1489433000097,221.1634422000061,221.1634422000061,221.67922750000434,222.1287575000024,m,0.9535630000027595,None,m,m,,,,009,001,2024-11-24_16h24.31.303,Lexical Decision Making,2024.1.5,None,2024-11-24 16h24.45.083390 +0530,
t r e n k,0.0,non-word,z,2,89,289,57,222.1444196000084,,,,,,,,,222.1293003000028,222.1444196000084,222.1444196000084,222.65935100000934,222.69443450000836,m,0.5342003999976441,None,m,z,,,,009,001,2024-11-24_16h24.31.303,Lexical Decision Making,2024.1.5,None,2024-11-24 16h24.45.083390 +0530,
g r i n d l e,0.0,non-word,z,2,90,290,3,222.70942150001065,,,,,,,,,222.6949561000074,222.70942150001065,222.70942150001065,223.22449340000458,223.30892630000017,z,0.5937286000116728,None,z,z,,,,009,001,2024-11-24_16h24.31.303,Lexical Decision Making,2024.1.5,None,2024-11-24 16h24.45.083390 +0530,
d r e n k,0.0,non-word,z,2,91,291,4,223.324649400005,,,,,,,,,223.30944420000014,223.324649400005,223.324649400005,223.8397311000008,223.8740778000065,z,0.538969499990344,None,z,z,,,,009,001,2024-11-24_16h24.31.303,Lexical Decision Making,2024.1.5,None,2024-11-24 16h24.45.083390 +0530,
c l o u d,1.0,neutral,m,2,92,292,94,223.88956250000047,,,,,,,,,223.87497480001184,223.88956250000047,223.88956250000047,224.4046340000059,224.63968980000936,m,0.7435977999994066,None,m,m,,,,009,001,2024-11-24_16h24.31.303,Lexical Decision Making,2024.1.5,None,2024-11-24 16h24.45.083390 +0530,
h a t e,1.0,negative,m,2,93,293,74,224.65403830001014,,,,,,,,,224.6402308000106,224.65403830001014,224.65403830001014,225.16974630000186,230.00737970000773,m,5.337390999993659,None,m,m,,,,009,001,2024-11-24_16h24.31.303,Lexical Decision Making,2024.1.5,None,2024-11-24 16h24.45.083390 +0530,
c l i b b e t,0.0,non-word,z,2,94,294,12,230.02287280000746,,,,,,,,,230.00791980000213,230.02287280000746,230.02287280000746,230.53783580000163,230.5723580000049,z,0.5420933999994304,None,z,z,,,,009,001,2024-11-24_16h24.31.303,Lexical Decision Making,2024.1.5,None,2024-11-24 16h24.45.083390 +0530,
w a r,1.0,negative,m,2,95,295,67,230.58792280001217,,,,,,,,,230.57289510000555,230.58792280001217,230.58792280001217,231.0866101000138,231.18739630001073,m,0.5895132999867201,None,m,m,,,,009,001,2024-11-24_16h24.31.303,Lexical Decision Making,2024.1.5,None,2024-11-24 16h24.45.083390 +0530,
s a d,1.0,negative,m,2,96,296,87,231.2029937000043,,,,,,,,,231.18793110000843,231.2029937000043,231.2029937000043,231.71847100000014,232.8827861000027,m,1.6737316000071587,None,m,m,,,,009,001,2024-11-24_16h24.31.303,Lexical Decision Making,2024.1.5,None,2024-11-24 16h24.45.083390 +0530,
s t o n e,1.0,neutral,m,2,97,297,13,232.89838820000296,,,,,,,,,232.88331410000683,232.89838820000296,232.89838820000296,233.41332650001277,233.76374320000468,m,0.8527834999986226,None,m,m,,,,009,001,2024-11-24_16h24.31.303,Lexical Decision Making,2024.1.5,None,2024-11-24 16h24.45.083390 +0530,
f e a r f u l,1.0,negative,m,2,98,298,2,233.7791247000132,,,,,,,,,233.76426610001363,233.7791247000132,233.7791247000132,234.27760440000566,235.0770518000063,m,1.2851787999970838,None,m,m,,,,009,001,2024-11-24_16h24.31.303,Lexical Decision Making,2024.1.5,None,2024-11-24 16h24.45.083390 +0530,
v a b l i n,0.0,non-word,z,2,99,299,1,235.0921675000136,,,,,,,,,235.07776400000148,235.0921675000136,235.0921675000136,235.60823070000333,235.65830410001217,z,0.5600862999999663,None,z,z,,,,009,001,2024-11-24_16h24.31.303,Lexical Decision Making,2024.1.5,None,2024-11-24 16h24.45.083390 +0530,
d r i n t,0.0,non-word,z,3,0,300,23,235.673735400007,,,,,,,,,235.6589193000109,235.673735400007,235.673735400007,236.17257050001353,236.22396590000426,z,0.54557480000949,None,z,z,,,,009,001,2024-11-24_16h24.31.303,Lexical Decision Making,2024.1.5,None,2024-11-24 16h24.45.083390 +0530,
b l o r p,0.0,non-word,z,3,1,301,84,236.2392753000022,,,,,,,,,236.224604300005,236.2392753000022,236.2392753000022,236.75441480000154,236.87182090000715,z,0.6257509999995818,None,z,z,,,,009,001,2024-11-24_16h24.31.303,Lexical Decision Making,2024.1.5,None,2024-11-24 16h24.45.083390 +0530,
f l o r t,0.0,non-word,z,3,2,302,11,236.88788639999984,,,,,,,,,236.87234340001305,236.88788639999984,236.88788639999984,,237.37051600000996,z,0.4814154000050621,None,z,z,,,,009,001,2024-11-24_16h24.31.303,Lexical Decision Making,2024.1.5,None,2024-11-24 16h24.45.083390 +0530,
m i s e r y,1.0,negative,m,3,3,303,34,237.38584330001322,,,,,,,,,237.37103910000587,237.38584330001322,237.38584330001322,237.90168030001223,241.4761043000035,m,4.084523500001524,None,m,m,,,,009,001,2024-11-24_16h24.31.303,Lexical Decision Making,2024.1.5,None,2024-11-24 16h24.45.083390 +0530,
a n g e r,1.0,negative,m,3,4,304,15,241.49156980001135,,,,,,,,,241.4766501000122,241.49156980001135,241.49156980001135,242.00703830001294,242.1243758000055,m,0.6184664000029443,None,m,m,,,,009,001,2024-11-24_16h24.31.303,Lexical Decision Making,2024.1.5,None,2024-11-24 16h24.45.083390 +0530,
p e n c i l,1.0,neutral,m,3,5,305,24,242.139614300002,,,,,,,,,242.1250782999996,242.139614300002,242.139614300002,242.65495900000678,243.98541810001188,m,1.8420413999992888,None,m,m,,,,009,001,2024-11-24_16h24.31.303,Lexical Decision Making,2024.1.5,None,2024-11-24 16h24.45.083390 +0530,
c l i b b e t,0.0,non-word,z,3,6,306,12,244.00130550000176,,,,,,,,,243.9860941000079,244.00130550000176,244.00130550000176,244.51653930000612,244.73369990001083,m,0.7177010000013979,None,m,z,,,,009,001,2024-11-24_16h24.31.303,Lexical Decision Making,2024.1.5,None,2024-11-24 16h24.45.083390 +0530,
s m a g l e,0.0,non-word,z,3,7,307,53,244.74929960000736,,,,,,,,,244.73424040000828,244.74929960000736,244.74929960000736,245.2645107000135,245.41546210000524,z,0.6564137999957893,None,z,z,,,,009,001,2024-11-24_16h24.31.303,Lexical Decision Making,2024.1.5,None,2024-11-24 16h24.45.083390 +0530,
g r i n d l e,0.0,non-word,z,3,8,308,3,245.43045950001397,,,,,,,,,245.41609580001386,245.43045950001397,245.43045950001397,245.94587680000404,246.52870840000105,z,1.0817404000117676,None,z,z,,,,009,001,2024-11-24_16h24.31.303,Lexical Decision Making,2024.1.5,None,2024-11-24 16h24.45.083390 +0530,
t a b l e,1.0,neutral,m,3,9,309,6,246.54470270000456,,,,,,,,,246.52965890000632,246.54470270000456,246.54470270000456,247.06001080000715,248.40711170001305,m,1.8566261999949347,None,m,m,,,,009,001,2024-11-24_16h24.31.303,Lexical Decision Making,2024.1.5,None,2024-11-24 16h24.45.083390 +0530,
m u r k l e,0.0,non-word,z,3,10,310,66,248.423057100008,,,,,,,,,248.40772060000745,248.423057100008,248.423057100008,248.93804040001123,249.02180919999955,z,0.5839756999921519,None,z,z,,,,009,001,2024-11-24_16h24.31.303,Lexical Decision Making,2024.1.5,None,2024-11-24 16h24.45.083390 +0530,
g r i e f,1.0,negative,m,3,11,311,81,249.0376028000028,,,,,,,,,249.02232750000258,249.0376028000028,249.0376028000028,249.5528675000096,249.98573970000143,m,0.9461678000079701,None,m,m,,,,009,001,2024-11-24_16h24.31.303,Lexical Decision Making,2024.1.5,None,2024-11-24 16h24.45.083390 +0530,
a n g e r,1.0,negative,m,3,12,312,44,250.00204860001395,,,,,,,,,249.98628820000158,250.00204860001395,250.00204860001395,250.51667880000605,252.87812540000596,m,2.8749219000019366,None,m,m,,,,009,001,2024-11-24_16h24.31.303,Lexical Decision Making,2024.1.5,None,2024-11-24 16h24.45.083390 +0530,
g r i n d l e,0.0,non-word,z,3,13,313,17,252.893859600008,,,,,,,,,252.87864930000796,252.893859600008,252.893859600008,253.40873580001062,253.47633510000014,z,0.5699170000007143,None,z,z,,,,009,001,2024-11-24_16h24.31.303,Lexical Decision Making,2024.1.5,None,2024-11-24 16h24.45.083390 +0530,
e x c i t e d,1.0,positive,m,3,14,314,72,253.49266360000183,,,,,,,,,253.47686800001247,253.49266360000183,253.49266360000183,254.0073381000111,254.00824670000293,m,0.5028118000045652,None,m,m,,,,009,001,2024-11-24_16h24.31.303,Lexical Decision Making,2024.1.5,None,2024-11-24 16h24.45.083390 +0530,
z o m p r e,0.0,non-word,z,3,15,315,73,254.02377810000326,,,,,,,,,254.00877760000003,254.02377810000326,254.02377810000326,254.52237030000833,254.80675610000617,z,0.7705357999948319,None,z,z,,,,009,001,2024-11-24_16h24.31.303,Lexical Decision Making,2024.1.5,None,2024-11-24 16h24.45.083390 +0530,
v i c t o r y,1.0,positive,m,3,16,316,25,254.8217025000049,,,,,,,,,254.80729850000353,254.8217025000049,254.8217025000049,255.3370447000052,261.6374044000113,m,6.804381199995987,None,m,m,,,,009,001,2024-11-24_16h24.31.303,Lexical Decision Making,2024.1.5,None,2024-11-24 16h24.45.083390 +0530,
p e a c e,1.0,positive,m,3,17,317,97,261.6531471000053,,,,,,,,,261.6379381000006,261.6531471000053,261.6531471000053,262.1686092000018,262.4355166000023,m,0.7761660999967717,None,m,m,,,,009,001,2024-11-24_16h24.31.303,Lexical Decision Making,2024.1.5,None,2024-11-24 16h24.45.083390 +0530,
g r u f f i l,0.0,non-word,z,3,18,318,49,262.4513858999999,,,,,,,,,262.43604090000736,262.4513858999999,262.4513858999999,262.96653050000896,263.0835666000057,z,0.6258098999969661,None,z,z,,,,009,001,2024-11-24_16h24.31.303,Lexical Decision Making,2024.1.5,None,2024-11-24 16h24.45.083390 +0530,
l a m p,1.0,neutral,m,3,19,319,42,263.09939719999966,,,,,,,,,263.084102000008,263.09939719999966,263.09939719999966,263.61527440001373,263.64885520000826,m,0.5377887999929953,None,m,m,,,,009,001,2024-11-24_16h24.31.303,Lexical Decision Making,2024.1.5,None,2024-11-24 16h24.45.083390 +0530,
p a i n,1.0,negative,m,3,20,320,83,263.6642872000084,,,,,,,,,263.649390400009,263.6642872000084,263.6642872000084,264.16325860000507,264.43018960001064,m,0.7510471999994479,None,m,m,,,,009,001,2024-11-24_16h24.31.303,Lexical Decision Making,2024.1.5,None,2024-11-24 16h24.45.083390 +0530,
d r i n t,0.0,non-word,z,3,21,321,36,264.4454826000001,,,,,,,,,264.43071880000934,264.4454826000001,264.4454826000001,264.96049180001137,264.99500040001294,z,0.5329485999973258,None,z,z,,,,009,001,2024-11-24_16h24.31.303,Lexical Decision Making,2024.1.5,None,2024-11-24 16h24.45.083390 +0530,
g r i e f,1.0,negative,m,3,22,322,62,265.010423300002,,,,,,,,,264.9955986000132,265.010423300002,265.010423300002,265.52605720001156,265.5110679000063,m,0.49763159999565687,None,m,m,,,,009,001,2024-11-24_16h24.31.303,Lexical Decision Making,2024.1.5,None,2024-11-24 16h24.45.083390 +0530,
k i n d n e s s,1.0,positive,m,3,23,323,82,265.52605720001156,,,,,,,,,265.5115930000029,265.52605720001156,265.52605720001156,266.0411624000117,266.058448900003,m,0.5201715000002878,None,m,m,,,,009,001,2024-11-24_16h24.31.303,Lexical Decision Making,2024.1.5,None,2024-11-24 16h24.45.083390 +0530,
r e g r e t,1.0,negative,m,3,24,324,64,266.07443310000235,,,,,,,,,266.0589735000103,266.07443310000235,266.07443310000235,266.5895748000039,266.69127340000705,m,0.5996173000021372,None,m,m,,,,009,001,2024-11-24_16h24.31.303,Lexical Decision Making,2024.1.5,None,2024-11-24 16h24.45.083390 +0530,
s a d n e s s,1.0,negative,m,3,25,325,65,266.7060832000134,,,,,,,,,266.691796900006,266.7060832000134,266.7060832000134,267.2212436000118,267.2555558000022,m,0.5344235000084154,None,m,m,,,,009,001,2024-11-24_16h24.31.303,Lexical Decision Making,2024.1.5,None,2024-11-24 16h24.45.083390 +0530,
l o s s,1.0,negative,m,3,26,326,29,267.27081760000146,,,,,,,,,267.2560872000031,267.27081760000146,267.27081760000146,267.78613030001,267.88690310000675,m,0.6063802999997279,None,m,m,,,,009,001,2024-11-24_16h24.31.303,Lexical Decision Making,2024.1.5,None,2024-11-24 16h24.45.083390 +0530,
b r a s k,0.0,non-word,z,3,27,327,79,267.9030300000013,,,,,,,,,267.8874477000063,267.9030300000013,267.9030300000013,268.4010777000076,268.5358840000117,z,0.6292608999938238,None,z,z,,,,009,001,2024-11-24_16h24.31.303,Lexical Decision Making,2024.1.5,None,2024-11-24 16h24.45.083390 +0530,
p l a r k,0.0,non-word,z,3,28,328,16,268.551003200002,,,,,,,,,268.5364280000067,268.551003200002,268.551003200002,269.049714400011,269.53248530000565,m,0.9669978999882005,None,m,z,,,,009,001,2024-11-24_16h24.31.303,Lexical Decision Making,2024.1.5,None,2024-11-24 16h24.45.083390 +0530,
a p p l e,1.0,neutral,m,3,29,329,32,269.54824329999974,,,,,,,,,269.53302500001155,269.54824329999974,269.54824329999974,270.06389260001015,270.0810371000116,m,0.5270440999884158,None,m,m,,,,009,001,2024-11-24_16h24.31.303,Lexical Decision Making,2024.1.5,None,2024-11-24 16h24.45.083390 +0530,
m e t r o,1.0,neutral,m,3,30,330,96,270.0965270000015,,,,,,,,,270.0815597000037,270.0965270000015,270.0965270000015,270.59562210000877,270.6299357000098,m,0.5292570000019623,None,m,m,,,,009,001,2024-11-24_16h24.31.303,Lexical Decision Making,2024.1.5,None,2024-11-24 16h24.45.083390 +0530,
h a p p y,1.0,positive,m,3,31,331,21,270.64558390001184,,,,,,,,,270.6304725000082,270.64558390001184,270.64558390001184,271.16089600000123,271.427938000008,m,0.7812163999915356,None,m,m,,,,009,001,2024-11-24_16h24.31.303,Lexical Decision Making,2024.1.5,None,2024-11-24 16h24.45.083390 +0530,
g r a t i t u d e,1.0,positive,m,3,32,332,41,271.4435540000122,,,,,,,,,271.42846629999985,271.4435540000122,271.4435540000122,271.95900919999985,271.9607803000108,m,0.5158174999960465,None,m,m,,,,009,001,2024-11-24_16h24.31.303,Lexical Decision Making,2024.1.5,None,2024-11-24 16h24.45.083390 +0530,
l a m p,1.0,neutral,m,3,33,333,18,271.9749143000081,,,,,,,,,271.96130840000114,271.9749143000081,271.9749143000081,272.4902532000124,272.7073445000133,m,0.7311791999964043,None,m,m,,,,009,001,2024-11-24_16h24.31.303,Lexical Decision Making,2024.1.5,None,2024-11-24 16h24.45.083390 +0530,
c r i o u s,0.0,non-word,z,3,34,334,99,272.72264890000224,,,,,,,,,272.7078724000021,272.72264890000224,272.72264890000224,273.2387052000122,273.42212620000646,z,0.693046400003368,None,z,z,,,,009,001,2024-11-24_16h24.31.303,Lexical Decision Making,2024.1.5,None,2024-11-24 16h24.45.083390 +0530,
c a r p e t,1.0,neutral,m,3,35,335,85,273.4376317999995,,,,,,,,,273.4227232000121,273.4376317999995,273.4376317999995,273.95315330001176,274.03679550001107,m,0.5891765999986092,None,m,m,,,,009,001,2024-11-24_16h24.31.303,Lexical Decision Making,2024.1.5,None,2024-11-24 16h24.45.083390 +0530,
f e a r f u l,1.0,negative,m,3,36,336,2,274.05278640000324,,,,,,,,,274.037333100001,274.05278640000324,274.05278640000324,274.5682472000044,274.5857520999998,m,0.5232289999985369,None,m,m,,,,009,001,2024-11-24_16h24.31.303,Lexical Decision Making,2024.1.5,None,2024-11-24 16h24.45.083390 +0530,
s t o n e,1.0,neutral,m,3,37,337,13,274.6008475000126,,,,,,,,,274.5862930000003,274.6008475000126,274.6008475000126,275.11651180000626,275.11744020000333,m,0.505712099999073,None,m,m,,,,009,001,2024-11-24_16h24.31.303,Lexical Decision Making,2024.1.5,None,2024-11-24 16h24.45.083390 +0530,
c a l e n d a r,1.0,neutral,m,3,38,338,86,275.13276230001065,,,,,,,,,275.11798100000306,275.13276230001065,275.13276230001065,275.64815850000014,275.66577400000824,m,0.5238503000000492,None,m,m,,,,009,001,2024-11-24_16h24.31.303,Lexical Decision Making,2024.1.5,None,2024-11-24 16h24.45.083390 +0530,
