Stimulus,IsWord,Valence,CorrectResponse,trials.thisRepN,trials.thisTrialN,trials.thisN,trials.thisIndex,thisRow.t,notes,instructions.started,instructionsText.started,key_resp_2.started,instructions.stopped,key_resp_2.keys,key_resp_2.rt,key_resp_2.duration,trial.started,text.started,key_resp.started,text.stopped,trial.stopped,key_resp.keys,key_resp.rt,key_resp.duration,ParticipantResponse,CorrectResponse,End.started,text_z.started,End.stopped,participant,session,date,expName,psychopyVersion,frameRate,expStart,
,,,,,,,,,,0.0042213000000401735,0.021128799999985404,0.021128799999985404,40.03635320000001,space,39.9403054,None,,,,,,,,,,,,,,008,001,2024-11-23_09h55.16.816,Lexical Decision Making,2024.1.5,None,2024-11-23 09h55.26.863514 +0530,
s u n s h i n e,1.0,positive,m,0,0,0,30,40.078217300000006,,,,,,,,,40.05974500000002,40.078217300000006,40.078217300000006,40.593658800000014,41.6421861,m,1.5583429000000137,None,m,m,,,,008,001,2024-11-23_09h55.16.816,Lexical Decision Making,2024.1.5,None,2024-11-23 09h55.26.863514 +0530,
m o u n t a i n,1.0,neutral,m,0,1,1,71,41.65747070000003,,,,,,,,,41.643451700000014,41.65747070000003,41.65747070000003,42.17274689999999,42.2401845,m,0.5760415999999964,None,m,m,,,,008,001,2024-11-23_09h55.16.816,Lexical Decision Making,2024.1.5,None,2024-11-23 09h55.26.863514 +0530,
a n g e r,1.0,negative,m,0,2,2,44,42.25555050000003,,,,,,,,,42.24072620000004,42.25555050000003,42.25555050000003,42.77100580000001,42.93859050000003,m,0.6713135999999622,None,m,m,,,,008,001,2024-11-23_09h55.16.816,Lexical Decision Making,2024.1.5,None,2024-11-23 09h55.26.863514 +0530,
a p p l e,1.0,neutral,m,0,3,3,32,42.953865500000006,,,,,,,,,42.93918660000003,42.953865500000006,42.953865500000006,43.46918210000001,43.48664880000001,m,0.5308239999999955,None,m,m,,,,008,001,2024-11-23_09h55.16.816,Lexical Decision Making,2024.1.5,None,2024-11-23 09h55.26.863514 +0530,
v o b l i t,0.0,non-word,z,0,4,4,38,43.50204690000004,,,,,,,,,43.48719410000001,43.50204690000004,43.50204690000004,44.00107919999999,44.05179390000001,z,0.5391738999999802,None,z,z,,,,008,001,2024-11-23_09h55.16.816,Lexical Decision Making,2024.1.5,None,2024-11-23 09h55.26.863514 +0530,
g l o r b y,0.0,non-word,z,0,5,5,28,44.06801010000004,,,,,,,,,44.05234340000004,44.06801010000004,44.06801010000004,44.58251360000003,44.63433180000004,z,0.5577319000000216,None,z,z,,,,008,001,2024-11-23_09h55.16.816,Lexical Decision Making,2024.1.5,None,2024-11-23 09h55.26.863514 +0530,
c a b l e,1.0,neutral,m,0,6,6,78,44.64923590000001,,,,,,,,,44.63505650000002,44.64923590000001,44.64923590000001,45.164529800000025,45.232094399999994,m,0.5772223000000167,None,m,m,,,,008,001,2024-11-23_09h55.16.816,Lexical Decision Making,2024.1.5,None,2024-11-23 09h55.26.863514 +0530,
l a m p,1.0,neutral,m,0,7,7,18,45.247718099999986,,,,,,,,,45.232635200000004,45.247718099999986,45.247718099999986,45.76248300000003,45.76357710000002,m,0.5030781000000388,None,m,m,,,,008,001,2024-11-23_09h55.16.816,Lexical Decision Making,2024.1.5,None,2024-11-23 09h55.26.863514 +0530,
p e n c i l,1.0,neutral,m,0,8,8,24,45.77942490000004,,,,,,,,,45.764214200000026,45.77942490000004,45.77942490000004,46.29437139999999,46.36257219999999,m,0.5698736000000508,None,m,m,,,,008,001,2024-11-23_09h55.16.816,Lexical Decision Making,2024.1.5,None,2024-11-23 09h55.26.863514 +0530,
r e g r e t,1.0,negative,m,0,9,9,64,46.377826200000015,,,,,,,,,46.36320840000002,46.377826200000015,46.377826200000015,46.89295270000002,46.89404840000003,m,0.5002067000000352,None,m,m,,,,008,001,2024-11-23_09h55.16.816,Lexical Decision Making,2024.1.5,None,2024-11-23 09h55.26.863514 +0530,
l a m p,1.0,neutral,m,0,10,10,42,46.90954479999999,,,,,,,,,46.89469980000001,46.90954479999999,46.90954479999999,,47.392802399999994,m,0.47282110000003286,None,m,m,,,,008,001,2024-11-23_09h55.16.816,Lexical Decision Making,2024.1.5,None,2024-11-23 09h55.26.863514 +0530,
t r a g e d y,1.0,negative,m,0,11,11,70,47.408239500000036,,,,,,,,,47.393429500000025,47.408239500000036,47.408239500000036,47.92322139999999,48.04086860000001,m,0.6294110999999702,None,m,m,,,,008,001,2024-11-23_09h55.16.816,Lexical Decision Making,2024.1.5,None,2024-11-23 09h55.26.863514 +0530,
s m o r n,0.0,non-word,z,0,12,12,14,48.05621020000001,,,,,,,,,48.04146280000003,48.05621020000001,48.05621020000001,48.55527310000002,48.80636950000002,z,0.7368347999999969,None,z,z,,,,008,001,2024-11-23_09h55.16.816,Lexical Decision Making,2024.1.5,None,2024-11-23 09h55.26.863514 +0530,
j o y f u l,1.0,positive,m,0,13,13,19,48.821260499999994,,,,,,,,,48.8069304,48.821260499999994,48.821260499999994,49.33643360000002,49.37126540000003,m,0.5438973999999916,None,m,m,,,,008,001,2024-11-23_09h55.16.816,Lexical Decision Making,2024.1.5,None,2024-11-23 09h55.26.863514 +0530,
s m a g l e,0.0,non-word,z,0,14,14,53,49.38613750000002,,,,,,,,,49.37180000000001,49.38613750000002,49.38613750000002,49.9015407,50.136026800000025,z,0.7415151999999807,None,z,z,,,,008,001,2024-11-23_09h55.16.816,Lexical Decision Making,2024.1.5,None,2024-11-23 09h55.26.863514 +0530,
h a t e,1.0,negative,m,0,15,15,74,50.1507828,,,,,,,,,50.136603000000036,50.1507828,50.1507828,50.64954720000003,51.11602930000004,m,0.9613350999999852,None,m,m,,,,008,001,2024-11-23_09h55.16.816,Lexical Decision Making,2024.1.5,None,2024-11-23 09h55.26.863514 +0530,
d r i n t,0.0,non-word,z,0,16,16,23,51.1316592,,,,,,,,,51.11680210000003,51.1316592,51.1316592,51.6468026,51.74770510000002,z,0.6053421999999955,None,z,z,,,,008,001,2024-11-23_09h55.16.816,Lexical Decision Making,2024.1.5,None,2024-11-23 09h55.26.863514 +0530,
s m o r n,0.0,non-word,z,0,17,17,51,51.76322329999999,,,,,,,,,51.74829249999999,51.76322329999999,51.76322329999999,52.278286200000025,52.445987100000025,z,0.6744231000000127,None,z,z,,,,008,001,2024-11-23_09h55.16.816,Lexical Decision Making,2024.1.5,None,2024-11-23 09h55.26.863514 +0530,
c h e e r,1.0,positive,m,0,18,18,63,52.461565199999995,,,,,,,,,52.44677810000002,52.461565199999995,52.461565199999995,52.97639000000004,52.97744510000001,m,0.5125417000000425,None,m,m,,,,008,001,2024-11-23_09h55.16.816,Lexical Decision Making,2024.1.5,None,2024-11-23 09h55.26.863514 +0530,
g r a t i t u d e,1.0,positive,m,0,19,19,41,52.992747699999995,,,,,,,,,52.978001500000005,52.992747699999995,52.992747699999995,,53.476254100000006,m,0.48093829999999116,None,m,m,,,,008,001,2024-11-23_09h55.16.816,Lexical Decision Making,2024.1.5,None,2024-11-23 09h55.26.863514 +0530,
p l a n e t,1.0,neutral,m,0,20,20,47,53.491559800000005,,,,,,,,,53.47696990000003,53.491559800000005,53.491559800000005,54.00690159999999,54.024655800000005,m,0.5224766000000045,None,m,m,,,,008,001,2024-11-23_09h55.16.816,Lexical Decision Making,2024.1.5,None,2024-11-23 09h55.26.863514 +0530,
v a b l i n,0.0,non-word,z,0,21,21,1,54.0399572,,,,,,,,,54.02527700000002,54.0399572,54.0399572,54.55532049999999,54.622773499999994,z,0.575873300000012,None,z,z,,,,008,001,2024-11-23_09h55.16.816,Lexical Decision Making,2024.1.5,None,2024-11-23 09h55.26.863514 +0530,
c r i o u s,0.0,non-word,z,0,22,22,99,54.638718299999994,,,,,,,,,54.623318900000015,54.638718299999994,54.638718299999994,,55.121748500000024,z,0.47266639999998006,None,z,z,,,,008,001,2024-11-23_09h55.16.816,Lexical Decision Making,2024.1.5,None,2024-11-23 09h55.26.863514 +0530,
d e l i g h t,1.0,positive,m,0,23,23,39,55.136917700000026,,,,,,,,,55.122519899999986,55.136917700000026,55.136917700000026,55.65223580000003,56.13573330000003,m,0.9888866000000007,None,m,m,,,,008,001,2024-11-23_09h55.16.816,Lexical Decision Making,2024.1.5,None,2024-11-23 09h55.26.863514 +0530,
s m i l e,1.0,positive,m,0,24,24,55,56.151228300000014,,,,,,,,,56.136287100000004,56.151228300000014,56.151228300000014,56.666403100000025,57.64856000000003,m,1.49602950000002,None,m,m,,,,008,001,2024-11-23_09h55.16.816,Lexical Decision Making,2024.1.5,None,2024-11-23 09h55.26.863514 +0530,
l o s s,1.0,negative,m,0,25,25,29,57.66347139999999,,,,,,,,,57.649242600000036,57.66347139999999,57.66347139999999,58.17856180000001,58.36258860000004,m,0.6852478000000133,None,m,m,,,,008,001,2024-11-23_09h55.16.816,Lexical Decision Making,2024.1.5,None,2024-11-23 09h55.26.863514 +0530,
b l o r p,0.0,non-word,z,0,26,26,84,58.378109300000006,,,,,,,,,58.36311710000001,58.378109300000006,58.378109300000006,58.89342340000002,59.6433308,z,1.247896400000002,None,z,z,,,,008,001,2024-11-23_09h55.16.816,Lexical Decision Making,2024.1.5,None,2024-11-23 09h55.26.863514 +0530,
d r e a m,1.0,positive,m,0,27,27,9,59.65833040000001,,,,,,,,,59.64407510000001,59.65833040000001,59.65833040000001,60.17332909999999,60.24168780000002,m,0.5725235000000453,None,m,m,,,,008,001,2024-11-23_09h55.16.816,Lexical Decision Making,2024.1.5,None,2024-11-23 09h55.26.863514 +0530,
c h a i r,1.0,neutral,m,0,28,28,7,60.25660420000003,,,,,,,,,60.242372999999986,60.25660420000003,60.25660420000003,,60.7228892,m,0.4617099999999823,None,m,m,,,,008,001,2024-11-23_09h55.16.816,Lexical Decision Making,2024.1.5,None,2024-11-23 09h55.26.863514 +0530,
f l o r t,0.0,non-word,z,0,29,29,11,60.738314,,,,,,,,,60.72350230000001,60.738314,60.738314,61.25390379999999,61.304403500000035,z,0.5634023999999727,None,z,z,,,,008,001,2024-11-23_09h55.16.816,Lexical Decision Making,2024.1.5,None,2024-11-23 09h55.26.863514 +0530,
p e a c e,1.0,positive,m,0,30,30,97,61.320246499999996,,,,,,,,,61.304938400000026,61.320246499999996,61.320246499999996,61.83525560000004,61.83636240000004,m,0.5127700999999547,None,m,m,,,,008,001,2024-11-23_09h55.16.816,Lexical Decision Making,2024.1.5,None,2024-11-23 09h55.26.863514 +0530,
p l o r,0.0,non-word,z,0,31,31,52,61.852106700000036,,,,,,,,,61.83695599999999,61.852106700000036,61.852106700000036,62.3672201,62.368361100000016,z,0.5119915000000219,None,z,z,,,,008,001,2024-11-23_09h55.16.816,Lexical Decision Making,2024.1.5,None,2024-11-23 09h55.26.863514 +0530,
g r i n d l e,0.0,non-word,z,0,32,32,54,62.38379580000003,,,,,,,,,62.3689493,62.38379580000003,62.38379580000003,62.88248950000002,62.90011830000003,z,0.5057329999999638,None,z,z,,,,008,001,2024-11-23_09h55.16.816,Lexical Decision Making,2024.1.5,None,2024-11-23 09h55.26.863514 +0530,
t a b l e,1.0,neutral,m,0,33,33,6,62.91586380000001,,,,,,,,,62.9008996,62.91586380000001,62.91586380000001,63.43106399999999,63.43215630000003,m,0.5027339000000097,None,m,m,,,,008,001,2024-11-23_09h55.16.816,Lexical Decision Making,2024.1.5,None,2024-11-23 09h55.26.863514 +0530,
v i c t o r y,1.0,positive,m,0,34,34,25,63.4477493,,,,,,,,,63.432908199999986,63.4477493,63.4477493,63.947350700000015,63.93187990000001,m,0.48317259999998896,None,m,m,,,,008,001,2024-11-23_09h55.16.816,Lexical Decision Making,2024.1.5,None,2024-11-23 09h55.26.863514 +0530,
a n g e r,1.0,negative,m,0,35,35,15,63.947350700000015,,,,,,,,,63.93239160000002,63.947350700000015,63.947350700000015,,64.41417670000004,m,0.4654941000000008,None,m,m,,,,008,001,2024-11-23_09h55.16.816,Lexical Decision Making,2024.1.5,None,2024-11-23 09h55.26.863514 +0530,
m i s e r y,1.0,negative,m,0,36,36,34,64.42930960000001,,,,,,,,,64.41460090000004,64.42930960000001,64.42930960000001,,64.89559860000003,m,0.45783009999996693,None,m,m,,,,008,001,2024-11-23_09h55.16.816,Lexical Decision Making,2024.1.5,None,2024-11-23 09h55.26.863514 +0530,
a c h i e v e m e n t,1.0,positive,m,0,37,37,27,64.91135650000001,,,,,,,,,64.89604550000001,64.91135650000001,64.91135650000001,,65.3780711,m,0.4656616999999983,None,m,m,,,,008,001,2024-11-23_09h55.16.816,Lexical Decision Making,2024.1.5,None,2024-11-23 09h55.26.863514 +0530,
w i n d o w,1.0,neutral,m,0,38,38,68,65.3933113,,,,,,,,,65.37872920000001,65.3933113,65.3933113,,65.80987600000003,m,0.4104208999999628,None,m,m,,,,008,001,2024-11-23_09h55.16.816,Lexical Decision Making,2024.1.5,None,2024-11-23 09h55.26.863514 +0530,
z a r f e t,0.0,non-word,z,0,39,39,31,65.82547679999999,,,,,,,,,65.81044450000002,65.82547679999999,65.82547679999999,66.34073690000002,66.37500170000004,z,0.5333817999999724,None,z,z,,,,008,001,2024-11-23_09h55.16.816,Lexical Decision Making,2024.1.5,None,2024-11-23 09h55.26.863514 +0530,
s a d n e s s,1.0,negative,m,0,40,40,65,66.39064490000004,,,,,,,,,66.37545270000004,66.39064490000004,66.39064490000004,66.9059009,66.90703160000004,m,0.51483589999998,None,m,m,,,,008,001,2024-11-23_09h55.16.816,Lexical Decision Making,2024.1.5,None,2024-11-23 09h55.26.863514 +0530,
p l a r k,0.0,non-word,z,0,41,41,16,66.92277580000001,,,,,,,,,66.90746419999999,66.92277580000001,66.92277580000001,67.44025600000003,67.50538599999999,z,0.5797309000000155,None,z,z,,,,008,001,2024-11-23_09h55.16.816,Lexical Decision Making,2024.1.5,None,2024-11-23 09h55.26.863514 +0530,
f e a r f u l,1.0,negative,m,0,42,42,2,67.52085930000004,,,,,,,,,67.50583280000001,67.52085930000004,67.52085930000004,68.03618190000003,68.03776420000003,m,0.5137004000000047,None,m,m,,,,008,001,2024-11-23_09h55.16.816,Lexical Decision Making,2024.1.5,None,2024-11-23 09h55.26.863514 +0530,
c o m f o r t,1.0,positive,m,0,43,43,59,68.05296150000004,,,,,,,,,68.03821140000002,68.05296150000004,68.05296150000004,68.56816450000002,68.7190028,m,0.6495759000000021,None,m,m,,,,008,001,2024-11-23_09h55.16.816,Lexical Decision Making,2024.1.5,None,2024-11-23 09h55.26.863514 +0530,
g r i e f,1.0,negative,m,0,44,44,81,68.73449820000002,,,,,,,,,68.71943099999999,68.73449820000002,68.73449820000002,69.24961510000003,69.23428770000004,m,0.4918102000000317,None,m,m,,,,008,001,2024-11-23_09h55.16.816,Lexical Decision Making,2024.1.5,None,2024-11-23 09h55.26.863514 +0530,
w i n d o w,1.0,neutral,m,0,45,45,80,69.24961510000003,,,,,,,,,69.23498310000002,69.24961510000003,69.24961510000003,69.7648787,69.81564460000004,m,0.5620235000000093,None,m,m,,,,008,001,2024-11-23_09h55.16.816,Lexical Decision Making,2024.1.5,None,2024-11-23 09h55.26.863514 +0530,
t r a i n,1.0,neutral,m,0,46,46,40,69.83126010000001,,,,,,,,,69.81606850000003,69.83126010000001,69.83126010000001,,70.2477988,m,0.41102719999997817,None,m,m,,,,008,001,2024-11-23_09h55.16.816,Lexical Decision Making,2024.1.5,None,2024-11-23 09h55.26.863514 +0530,
s o r r o w,1.0,negative,m,0,47,47,33,70.2637201,,,,,,,,,70.2482367,70.2637201,70.2637201,,70.74676490000002,m,0.4819847999999638,None,m,m,,,,008,001,2024-11-23_09h55.16.816,Lexical Decision Making,2024.1.5,None,2024-11-23 09h55.26.863514 +0530,
k i n d n e s s,1.0,positive,m,0,48,48,82,70.76242690000004,,,,,,,,,70.7472017,70.76242690000004,70.76242690000004,,71.2289136,m,0.46481299999999237,None,m,m,,,,008,001,2024-11-23_09h55.16.816,Lexical Decision Making,2024.1.5,None,2024-11-23 09h55.26.863514 +0530,
c e l e b r a t i o n,1.0,positive,m,0,49,49,75,71.24412440000003,,,,,,,,,71.22951040000004,71.24412440000003,71.24412440000003,,71.66144320000001,m,0.4105955999999651,None,m,m,,,,008,001,2024-11-23_09h55.16.816,Lexical Decision Making,2024.1.5,None,2024-11-23 09h55.26.863514 +0530,
f e a r f u l,1.0,negative,m,0,50,50,98,71.67621350000002,,,,,,,,,71.6619533,71.67621350000002,71.67621350000002,,72.1426176,m,0.45923299999998335,None,m,m,,,,008,001,2024-11-23_09h55.16.816,Lexical Decision Making,2024.1.5,None,2024-11-23 09h55.26.863514 +0530,
c l i b b e t,0.0,non-word,z,0,51,51,12,72.15760310000002,,,,,,,,,72.14320609999999,72.15760310000002,72.15760310000002,72.67271040000003,72.72337379999999,z,0.5512085999999954,None,z,z,,,,008,001,2024-11-23_09h55.16.816,Lexical Decision Making,2024.1.5,None,2024-11-23 09h55.26.863514 +0530,
l a w v e r,0.0,non-word,z,0,52,52,76,72.7392681,,,,,,,,,72.72396520000001,72.7392681,72.7392681,73.25450380000001,73.33890130000003,z,0.5971320000000446,None,z,z,,,,008,001,2024-11-23_09h55.16.816,Lexical Decision Making,2024.1.5,None,2024-11-23 09h55.26.863514 +0530,
h a p p y,1.0,positive,m,0,53,53,21,73.3541482,,,,,,,,,73.3394346,73.3541482,73.3541482,73.86922370000002,73.95370890000004,m,0.5931656999999859,None,m,m,,,,008,001,2024-11-23_09h55.16.816,Lexical Decision Making,2024.1.5,None,2024-11-23 09h55.26.863514 +0530,
c r i t i c i s m,1.0,negative,m,0,54,54,26,73.969113,,,,,,,,,73.9543021,73.969113,73.969113,74.4841207,74.56837890000003,m,0.5848502000000053,None,m,m,,,,008,001,2024-11-23_09h55.16.816,Lexical Decision Making,2024.1.5,None,2024-11-23 09h55.26.863514 +0530,
s w o r p y,0.0,non-word,z,0,55,55,69,74.58398210000001,,,,,,,,,74.5689941,74.58398210000001,74.58398210000001,75.09942050000001,75.233428,z,0.6410652000000141,None,z,z,,,,008,001,2024-11-23_09h55.16.816,Lexical Decision Making,2024.1.5,None,2024-11-23 09h55.26.863514 +0530,
p a i n,1.0,negative,m,0,56,56,83,75.24908700000003,,,,,,,,,75.23427480000004,75.24908700000003,75.24908700000003,,75.68230440000002,m,0.42179889999999887,None,m,m,,,,008,001,2024-11-23_09h55.16.816,Lexical Decision Making,2024.1.5,None,2024-11-23 09h55.26.863514 +0530,
b o o k,1.0,neutral,m,0,57,57,22,75.69757100000004,,,,,,,,,75.68285660000004,75.69757100000004,75.69757100000004,76.21301700000004,76.54655930000001,m,0.845857599999988,None,m,m,,,,008,001,2024-11-23_09h55.16.816,Lexical Decision Making,2024.1.5,None,2024-11-23 09h55.26.863514 +0530,
c l o c k,1.0,neutral,m,0,58,58,48,76.56179130000004,,,,,,,,,76.54714920000004,76.56179130000004,76.56179130000004,77.07733480000002,77.5104627,m,0.9401455000000283,None,m,m,,,,008,001,2024-11-23_09h55.16.816,Lexical Decision Making,2024.1.5,None,2024-11-23 09h55.26.863514 +0530,
m e t r o,1.0,neutral,m,0,59,59,96,77.52574150000004,,,,,,,,,77.51100840000004,77.52574150000004,77.52574150000004,78.0411178,78.02561480000003,m,0.49572699999998804,None,m,m,,,,008,001,2024-11-23_09h55.16.816,Lexical Decision Making,2024.1.5,None,2024-11-23 09h55.26.863514 +0530,
d r o n t,0.0,non-word,z,0,60,60,95,78.0411178,,,,,,,,,78.02627580000001,78.0411178,78.0411178,78.55640820000002,78.6244461,z,0.5716678999999658,None,z,z,,,,008,001,2024-11-23_09h55.16.816,Lexical Decision Making,2024.1.5,None,2024-11-23 09h55.26.863514 +0530,
b l o r p,0.0,non-word,z,0,61,61,5,78.63951560000004,,,,,,,,,78.62498490000002,78.63951560000004,78.63951560000004,79.15466200000003,79.13996200000003,m,0.49235049999998637,None,m,z,,,,008,001,2024-11-23_09h55.16.816,Lexical Decision Making,2024.1.5,None,2024-11-23 09h55.26.863514 +0530,
h o p e,1.0,positive,m,0,62,62,46,79.15466200000003,,,,,,,,,79.14050450000002,79.15466200000003,79.15466200000003,79.67001550000003,79.671177,m,0.5023201000000199,None,m,m,,,,008,001,2024-11-23_09h55.16.816,Lexical Decision Making,2024.1.5,None,2024-11-23 09h55.26.863514 +0530,
w a r,1.0,negative,m,0,63,63,67,79.68680549999999,,,,,,,,,79.67173250000002,79.68680549999999,79.68680549999999,80.20194800000002,81.49973920000002,m,1.8044955999999956,None,m,m,,,,008,001,2024-11-23_09h55.16.816,Lexical Decision Making,2024.1.5,None,2024-11-23 09h55.26.863514 +0530,
f a i l u r e,1.0,negative,m,0,64,64,77,81.51521100000002,,,,,,,,,81.50041429999999,81.51521100000002,81.51521100000002,82.0305573,87.20051430000001,m,5.673510899999997,None,m,m,,,,008,001,2024-11-23_09h55.16.816,Lexical Decision Making,2024.1.5,None,2024-11-23 09h55.26.863514 +0530,
c h i n d l e,0.0,non-word,z,0,65,65,8,87.21619450000003,,,,,,,,,87.20106020000003,87.21619450000003,87.21619450000003,87.73174549999999,87.81656989999999,z,0.5863890999999626,None,z,z,,,,008,001,2024-11-23_09h55.16.816,Lexical Decision Making,2024.1.5,None,2024-11-23 09h55.26.863514 +0530,
t r e n k,0.0,non-word,z,0,66,66,57,87.83163460000003,,,,,,,,,87.81749439999999,87.83163460000003,87.83163460000003,88.3296345,88.4807338,z,0.6465269000000262,None,z,z,,,,008,001,2024-11-23_09h55.16.816,Lexical Decision Making,2024.1.5,None,2024-11-23 09h55.26.863514 +0530,
g r i e f,1.0,negative,m,0,67,67,50,88.49590799999999,,,,,,,,,88.4814819,88.49590799999999,88.49590799999999,88.99502849999999,89.09552690000004,m,0.5981775000000198,None,m,m,,,,008,001,2024-11-23_09h55.16.816,Lexical Decision Making,2024.1.5,None,2024-11-23 09h55.26.863514 +0530,
p e a c e,1.0,positive,m,0,68,68,89,89.11136550000003,,,,,,,,,89.09606150000002,89.11136550000003,89.11136550000003,89.62686940000003,89.66102770000003,m,0.5328246999999919,None,m,m,,,,008,001,2024-11-23_09h55.16.816,Lexical Decision Making,2024.1.5,None,2024-11-23 09h55.26.863514 +0530,
l o m e b,0.0,non-word,z,0,69,69,90,89.67625720000001,,,,,,,,,89.661584,89.67625720000001,89.67625720000001,90.1751549,90.3754227,z,0.695562099999961,None,z,z,,,,008,001,2024-11-23_09h55.16.816,Lexical Decision Making,2024.1.5,None,2024-11-23 09h55.26.863514 +0530,
g r u f f i l,0.0,non-word,z,0,70,70,49,90.39106350000003,,,,,,,,,90.37595579999999,90.39106350000003,90.39106350000003,90.90659210000001,91.04061410000003,z,0.6341210000000501,None,z,z,,,,008,001,2024-11-23_09h55.16.816,Lexical Decision Making,2024.1.5,None,2024-11-23 09h55.26.863514 +0530,
t w o r i k,0.0,non-word,z,0,71,71,93,91.05644670000004,,,,,,,,,91.04117710000003,91.05644670000004,91.05644670000004,91.57076760000001,91.55548800000003,z,0.4893688000000225,None,z,z,,,,008,001,2024-11-23_09h55.16.816,Lexical Decision Making,2024.1.5,None,2024-11-23 09h55.26.863514 +0530,
g r i e f,1.0,negative,m,0,72,72,62,91.57076760000001,,,,,,,,,91.55603430000002,91.57076760000001,91.57076760000001,92.06945230000002,93.45034520000002,m,1.8763245000000097,None,m,m,,,,008,001,2024-11-23_09h55.16.816,Lexical Decision Making,2024.1.5,None,2024-11-23 09h55.26.863514 +0530,
s m i l e,1.0,positive,m,0,73,73,92,93.46606460000004,,,,,,,,,93.45089910000002,93.46606460000004,93.46606460000004,93.9809831,94.36481230000004,m,0.8837764999999536,None,m,m,,,,008,001,2024-11-23_09h55.16.816,Lexical Decision Making,2024.1.5,None,2024-11-23 09h55.26.863514 +0530,
b o t t l e,1.0,neutral,m,0,74,74,58,94.3804101,,,,,,,,,94.3653531,94.3804101,94.3804101,94.89529529999999,95.16232660000003,m,0.771239899999955,None,m,m,,,,008,001,2024-11-23_09h55.16.816,Lexical Decision Making,2024.1.5,None,2024-11-23 09h55.26.863514 +0530,
d r i n t,0.0,non-word,z,0,75,75,36,95.17746490000002,,,,,,,,,95.16287590000002,95.17746490000002,95.17746490000002,95.69287910000003,95.74429050000003,z,0.5620629999999665,None,z,z,,,,008,001,2024-11-23_09h55.16.816,Lexical Decision Making,2024.1.5,None,2024-11-23 09h55.26.863514 +0530,
p e n c i l,1.0,neutral,m,0,76,76,37,95.75994170000001,,,,,,,,,95.74481980000002,95.75994170000001,95.75994170000001,96.27501469999999,96.47544800000003,m,0.7016879000000245,None,m,m,,,,008,001,2024-11-23_09h55.16.816,Lexical Decision Making,2024.1.5,None,2024-11-23 09h55.26.863514 +0530,
b l o r p,0.0,non-word,z,0,77,77,60,96.49183199999999,,,,,,,,,96.4759838,96.49183199999999,96.49183199999999,97.00603430000001,97.22352710000001,z,0.7298935000000029,None,z,z,,,,008,001,2024-11-23_09h55.16.816,Lexical Decision Making,2024.1.5,None,2024-11-23 09h55.26.863514 +0530,
e x c i t e d,1.0,positive,m,0,78,78,72,97.2386148,,,,,,,,,97.22426030000003,97.2386148,97.2386148,97.73762270000003,97.92176900000004,m,0.676016699999991,None,m,m,,,,008,001,2024-11-23_09h55.16.816,Lexical Decision Making,2024.1.5,None,2024-11-23 09h55.26.863514 +0530,
s u c c e s s,1.0,positive,m,0,79,79,35,97.93722080000003,,,,,,,,,97.9223187,97.93722080000003,97.93722080000003,98.45224440000004,98.56993570000003,m,0.624418100000014,None,m,m,,,,008,001,2024-11-23_09h55.16.816,Lexical Decision Making,2024.1.5,None,2024-11-23 09h55.26.863514 +0530,
g r i n d l e,0.0,non-word,z,0,80,80,17,98.58542770000003,,,,,,,,,98.5704609,98.58542770000003,98.58542770000003,99.10060379999999,99.36763740000004,z,0.767909799999984,None,z,z,,,,008,001,2024-11-23_09h55.16.816,Lexical Decision Making,2024.1.5,None,2024-11-23 09h55.26.863514 +0530,
d r e n k,0.0,non-word,z,0,81,81,4,99.38304099999999,,,,,,,,,99.3681861,99.38304099999999,99.38304099999999,99.89843139999999,100.18250330000001,z,0.7922080000000165,None,z,z,,,,008,001,2024-11-23_09h55.16.816,Lexical Decision Making,2024.1.5,None,2024-11-23 09h55.26.863514 +0530,
l o v e,1.0,positive,m,0,82,82,0,100.19790590000002,,,,,,,,,100.1830579,100.19790590000002,100.19790590000002,100.71289920000004,100.94680720000002,m,0.7353678000000059,None,m,m,,,,008,001,2024-11-23_09h55.16.816,Lexical Decision Making,2024.1.5,None,2024-11-23 09h55.26.863514 +0530,
c h e e r f u l,1.0,positive,m,0,83,83,43,100.96243530000004,,,,,,,,,100.94768650000003,100.96243530000004,100.96243530000004,101.4775917,101.66139200000003,m,0.6887313999999947,None,m,m,,,,008,001,2024-11-23_09h55.16.816,Lexical Decision Making,2024.1.5,None,2024-11-23 09h55.26.863514 +0530,
d e s p a i r,1.0,negative,m,0,84,84,56,101.67676230000001,,,,,,,,,101.66192160000003,101.67676230000001,101.67676230000001,102.1758125,102.57515269999999,m,0.88902360000003,None,m,m,,,,008,001,2024-11-23_09h55.16.816,Lexical Decision Making,2024.1.5,None,2024-11-23 09h55.26.863514 +0530,
z o m p r e,0.0,non-word,z,0,85,85,73,102.59096260000001,,,,,,,,,102.57570229999999,102.59096260000001,102.59096260000001,103.1061899,103.40673620000001,z,0.8021380000000136,None,z,z,,,,008,001,2024-11-23_09h55.16.816,Lexical Decision Making,2024.1.5,None,2024-11-23 09h55.26.863514 +0530,
c l o u d,1.0,neutral,m,0,86,86,94,103.42208240000002,,,,,,,,,103.40751230000001,103.42208240000002,103.42208240000002,103.93768140000003,103.9386758,m,0.5095731000000114,None,m,m,,,,008,001,2024-11-23_09h55.16.816,Lexical Decision Making,2024.1.5,None,2024-11-23 09h55.26.863514 +0530,
c a l e n d a r,1.0,neutral,m,0,87,87,86,103.95417580000003,,,,,,,,,103.93922309999999,103.95417580000003,103.95417580000003,104.46950780000003,104.65320310000004,m,0.697744699999987,None,m,m,,,,008,001,2024-11-23_09h55.16.816,Lexical Decision Making,2024.1.5,None,2024-11-23 09h55.26.863514 +0530,
p l a r k,0.0,non-word,z,0,88,88,45,104.66891820000001,,,,,,,,,104.65386899999999,104.66891820000001,104.66891820000001,105.18370370000002,105.4012515,z,0.729575699999998,None,z,z,,,,008,001,2024-11-23_09h55.16.816,Lexical Decision Making,2024.1.5,None,2024-11-23 09h55.26.863514 +0530,
b r a s k,0.0,non-word,z,0,89,89,79,105.41671339999999,,,,,,,,,105.40197640000002,105.41671339999999,105.41671339999999,105.93186410000004,105.96606650000001,m,0.5394995999999992,None,m,z,,,,008,001,2024-11-23_09h55.16.816,Lexical Decision Making,2024.1.5,None,2024-11-23 09h55.26.863514 +0530,
q u i b l e n,0.0,non-word,z,0,90,90,91,105.98180100000002,,,,,,,,,105.96660330000003,105.98180100000002,105.98180100000002,106.49658820000002,106.97983620000002,z,0.9872659000000112,None,z,z,,,,008,001,2024-11-23_09h55.16.816,Lexical Decision Making,2024.1.5,None,2024-11-23 09h55.26.863514 +0530,
s a d,1.0,negative,m,0,91,91,87,106.9954899,,,,,,,,,106.9803872,106.9954899,106.9954899,107.5114428,108.77550250000002,m,1.765761600000019,None,m,m,,,,008,001,2024-11-23_09h55.16.816,Lexical Decision Making,2024.1.5,None,2024-11-23 09h55.26.863514 +0530,
g r i n d l e,0.0,non-word,z,0,92,92,3,108.79030740000002,,,,,,,,,108.77631070000001,108.79030740000002,108.79030740000002,109.28932080000004,109.45732960000004,z,0.653976900000032,None,z,z,,,,008,001,2024-11-23_09h55.16.816,Lexical Decision Making,2024.1.5,None,2024-11-23 09h55.26.863514 +0530,
m u r k l e,0.0,non-word,z,0,93,93,66,109.47194619999999,,,,,,,,,109.45829380000004,109.47194619999999,109.47194619999999,109.98748180000001,111.05267320000002,z,1.5793048000000454,None,z,z,,,,008,001,2024-11-23_09h55.16.816,Lexical Decision Making,2024.1.5,None,2024-11-23 09h55.26.863514 +0530,
s t o n e,1.0,neutral,m,0,94,94,13,111.06773550000003,,,,,,,,,111.0532169,111.06773550000003,111.06773550000003,111.58285950000004,112.01615120000002,m,0.9443609000000492,None,m,m,,,,008,001,2024-11-23_09h55.16.816,Lexical Decision Making,2024.1.5,None,2024-11-23 09h55.26.863514 +0530,
c r y,1.0,negative,m,0,95,95,61,112.03169600000001,,,,,,,,,112.01668480000001,112.03169600000001,112.03169600000001,112.53083400000003,112.66430740000004,m,0.616164499999968,None,m,m,,,,008,001,2024-11-23_09h55.16.816,Lexical Decision Making,2024.1.5,None,2024-11-23 09h55.26.863514 +0530,
s a d n e s s,1.0,negative,m,0,96,96,88,112.680094,,,,,,,,,112.66483729999999,112.680094,112.680094,113.19583019999999,113.42908570000003,m,0.7413540999999668,None,m,m,,,,008,001,2024-11-23_09h55.16.816,Lexical Decision Making,2024.1.5,None,2024-11-23 09h55.26.863514 +0530,
c l o c k,1.0,neutral,m,0,97,97,20,113.44488710000002,,,,,,,,,113.4296238,113.44488710000002,113.44488710000002,113.96020830000003,114.04438540000001,m,0.5827998999999977,None,m,m,,,,008,001,2024-11-23_09h55.16.816,Lexical Decision Making,2024.1.5,None,2024-11-23 09h55.26.863514 +0530,
e x c i t e d,1.0,positive,m,0,98,98,10,114.05980679999999,,,,,,,,,114.0449218,114.05980679999999,114.05980679999999,114.57524330000001,115.10796640000001,m,1.0444360000000188,None,m,m,,,,008,001,2024-11-23_09h55.16.816,Lexical Decision Making,2024.1.5,None,2024-11-23 09h55.26.863514 +0530,
c a r p e t,1.0,neutral,m,0,99,99,85,115.1235479,,,,,,,,,115.10852030000001,115.1235479,115.1235479,115.63844270000004,115.87232119999999,m,0.7410154000000375,None,m,m,,,,008,001,2024-11-23_09h55.16.816,Lexical Decision Making,2024.1.5,None,2024-11-23 09h55.26.863514 +0530,
f e a r f u l,1.0,negative,m,1,0,100,98,115.88787530000002,,,,,,,,,115.87323350000003,115.88787530000002,115.88787530000002,116.40322880000002,116.47169350000001,m,0.5720690999999647,None,m,m,,,,008,001,2024-11-23_09h55.16.816,Lexical Decision Making,2024.1.5,None,2024-11-23 09h55.26.863514 +0530,
l a m p,1.0,neutral,m,1,1,101,42,116.48641000000003,,,,,,,,,116.47228050000001,116.48641000000003,116.48641000000003,117.00141869999999,117.21872080000003,m,0.7178549000000203,None,m,m,,,,008,001,2024-11-23_09h55.16.816,Lexical Decision Making,2024.1.5,None,2024-11-23 09h55.26.863514 +0530,
b o o k,1.0,neutral,m,1,2,102,22,117.23430200000001,,,,,,,,,117.21944110000004,117.23430200000001,117.23430200000001,117.74954100000002,117.90040099999999,m,0.6491606000000161,None,m,m,,,,008,001,2024-11-23_09h55.16.816,Lexical Decision Making,2024.1.5,None,2024-11-23 09h55.26.863514 +0530,
b l o r p,0.0,non-word,z,1,3,103,84,117.915456,,,,,,,,,117.90140890000004,117.915456,117.915456,118.43127329999999,118.4651632,z,0.5345412000000351,None,z,z,,,,008,001,2024-11-23_09h55.16.816,Lexical Decision Making,2024.1.5,None,2024-11-23 09h55.26.863514 +0530,
c l o c k,1.0,neutral,m,1,4,104,20,118.48097710000002,,,,,,,,,118.4657684,118.48097710000002,118.48097710000002,118.99602279999999,118.99727970000004,m,0.5138830000000212,None,m,m,,,,008,001,2024-11-23_09h55.16.816,Lexical Decision Making,2024.1.5,None,2024-11-23 09h55.26.863514 +0530,
h a p p y,1.0,positive,m,1,5,105,21,119.01284270000002,,,,,,,,,118.99792580000002,119.01284270000002,119.01284270000002,119.52824470000002,119.66200950000001,m,0.6457501000000434,None,m,m,,,,008,001,2024-11-23_09h55.16.816,Lexical Decision Making,2024.1.5,None,2024-11-23 09h55.26.863514 +0530,
c l o u d,1.0,neutral,m,1,6,106,94,119.6772719,,,,,,,,,119.66254960000003,119.6772719,119.6772719,120.19260700000001,120.31031260000003,m,0.6255134999999541,None,m,m,,,,008,001,2024-11-23_09h55.16.816,Lexical Decision Making,2024.1.5,None,2024-11-23 09h55.26.863514 +0530,
m i s e r y,1.0,negative,m,1,7,107,34,120.32582070000001,,,,,,,,,120.3108484,120.32582070000001,120.32582070000001,120.84130290000002,120.99183,m,0.6539809000000218,None,m,m,,,,008,001,2024-11-23_09h55.16.816,Lexical Decision Making,2024.1.5,None,2024-11-23 09h55.26.863514 +0530,
s u c c e s s,1.0,positive,m,1,8,108,35,121.00740960000002,,,,,,,,,120.992389,121.00740960000002,121.00740960000002,121.52228760000003,121.95629660000003,m,0.9383523999999852,None,m,m,,,,008,001,2024-11-23_09h55.16.816,Lexical Decision Making,2024.1.5,None,2024-11-23 09h55.26.863514 +0530,
b o t t l e,1.0,neutral,m,1,9,109,58,121.9716416,,,,,,,,,121.95683680000002,121.9716416,121.9716416,122.48653050000001,122.60422030000001,m,0.6175175000000195,None,m,m,,,,008,001,2024-11-23_09h55.16.816,Lexical Decision Making,2024.1.5,None,2024-11-23 09h55.26.863514 +0530,
g r i n d l e,0.0,non-word,z,1,10,110,17,122.61963250000002,,,,,,,,,122.60475880000001,122.61963250000002,122.61963250000002,123.13502590000002,123.26851320000003,z,0.6458291000000145,None,z,z,,,,008,001,2024-11-23_09h55.16.816,Lexical Decision Making,2024.1.5,None,2024-11-23 09h55.26.863514 +0530,
h o p e,1.0,positive,m,1,11,111,46,123.28437550000001,,,,,,,,,123.2690452,123.28437550000001,123.28437550000001,123.79943100000003,123.80056339999999,m,0.5112538999999856,None,m,m,,,,008,001,2024-11-23_09h55.16.816,Lexical Decision Making,2024.1.5,None,2024-11-23 09h55.26.863514 +0530,
m o u n t a i n,1.0,neutral,m,1,12,112,71,123.81619690000002,,,,,,,,,123.8011252,123.81619690000002,123.81619690000002,124.33148010000002,124.39884590000003,m,0.5701717000000031,None,m,m,,,,008,001,2024-11-23_09h55.16.816,Lexical Decision Making,2024.1.5,None,2024-11-23 09h55.26.863514 +0530,
s m o r n,0.0,non-word,z,1,13,113,14,124.41437640000004,,,,,,,,,124.3994472,124.41437640000004,124.41437640000004,124.9297378,125.04733279999999,z,0.6227602999999817,None,z,z,,,,008,001,2024-11-23_09h55.16.816,Lexical Decision Making,2024.1.5,None,2024-11-23 09h55.26.863514 +0530,
s t o n e,1.0,neutral,m,1,14,114,13,125.06261640000002,,,,,,,,,125.04789970000002,125.06261640000002,125.06261640000002,125.57790160000002,125.57941829999999,m,0.5151091999999835,None,m,m,,,,008,001,2024-11-23_09h55.16.816,Lexical Decision Making,2024.1.5,None,2024-11-23 09h55.26.863514 +0530,
k i n d n e s s,1.0,positive,m,1,15,115,82,125.59447290000003,,,,,,,,,125.58001540000004,125.59447290000003,125.59447290000003,126.09308700000003,126.16117259999999,m,0.5543013999999857,None,m,m,,,,008,001,2024-11-23_09h55.16.816,Lexical Decision Making,2024.1.5,None,2024-11-23 09h55.26.863514 +0530,
d r e a m,1.0,positive,m,1,16,116,9,126.17648300000002,,,,,,,,,126.1619384,126.17648300000002,126.17648300000002,126.69178390000002,126.7591246,m,0.572147799999982,None,m,m,,,,008,001,2024-11-23_09h55.16.816,Lexical Decision Making,2024.1.5,None,2024-11-23 09h55.26.863514 +0530,
t w o r i k,0.0,non-word,z,1,17,117,93,126.77458740000003,,,,,,,,,126.7597467,126.77458740000003,126.77458740000003,127.28984000000003,127.37400200000002,z,0.5842413999999962,None,z,z,,,,008,001,2024-11-23_09h55.16.816,Lexical Decision Making,2024.1.5,None,2024-11-23 09h55.26.863514 +0530,
s o r r o w,1.0,negative,m,1,18,118,33,127.38958330000003,,,,,,,,,127.37456940000004,127.38958330000003,127.38958330000003,,127.8728989,m,0.46702339999995957,None,m,m,,,,008,001,2024-11-23_09h55.16.816,Lexical Decision Making,2024.1.5,None,2024-11-23 09h55.26.863514 +0530,
p a i n,1.0,negative,m,1,19,119,83,127.88834650000001,,,,,,,,,127.87355250000002,127.88834650000001,127.88834650000001,128.4036453,129.684601,m,1.7872632000000408,None,m,m,,,,008,001,2024-11-23_09h55.16.816,Lexical Decision Making,2024.1.5,None,2024-11-23 09h55.26.863514 +0530,
w i n d o w,1.0,neutral,m,1,20,120,80,129.70017080000002,,,,,,,,,129.6853362,129.70017080000002,129.70017080000002,130.2155922,130.4827001,m,0.7730558999999744,None,m,m,,,,008,001,2024-11-23_09h55.16.816,Lexical Decision Making,2024.1.5,None,2024-11-23 09h55.26.863514 +0530,
l o m e b,0.0,non-word,z,1,21,121,90,130.49852020000003,,,,,,,,,130.4832354,130.49852020000003,130.49852020000003,131.01301360000002,131.06439540000002,z,0.5644294999999602,None,z,z,,,,008,001,2024-11-23_09h55.16.816,Lexical Decision Making,2024.1.5,None,2024-11-23 09h55.26.863514 +0530,
a c h i e v e m e n t,1.0,positive,m,1,22,122,27,131.0799237,,,,,,,,,131.06492480000003,131.0799237,131.0799237,131.5951104,131.72894740000004,m,0.6401255999999762,None,m,m,,,,008,001,2024-11-23_09h55.16.816,Lexical Decision Making,2024.1.5,None,2024-11-23 09h55.26.863514 +0530,
l a w v e r,0.0,non-word,z,1,23,123,76,131.7446979,,,,,,,,,131.7294756,131.7446979,131.7446979,132.26010160000004,132.361181,z,0.6149450999999999,None,z,z,,,,008,001,2024-11-23_09h55.16.816,Lexical Decision Making,2024.1.5,None,2024-11-23 09h55.26.863514 +0530,
c a l e n d a r,1.0,neutral,m,1,24,124,86,132.3761773,,,,,,,,,132.3617403,132.3761773,132.3761773,132.89170690000003,132.9260787,m,0.5486307999999553,None,m,m,,,,008,001,2024-11-23_09h55.16.816,Lexical Decision Making,2024.1.5,None,2024-11-23 09h55.26.863514 +0530,
p e a c e,1.0,positive,m,1,25,125,89,132.9417734,,,,,,,,,132.9266146,132.9417734,132.9417734,133.45657440000002,133.44092040000004,m,0.49551819999999225,None,m,m,,,,008,001,2024-11-23_09h55.16.816,Lexical Decision Making,2024.1.5,None,2024-11-23 09h55.26.863514 +0530,
c r i t i c i s m,1.0,negative,m,1,26,126,26,133.45657440000002,,,,,,,,,133.4414729,133.45657440000002,133.45657440000002,133.97194430000002,134.0894768,m,0.6214383000000225,None,m,m,,,,008,001,2024-11-23_09h55.16.816,Lexical Decision Making,2024.1.5,None,2024-11-23 09h55.26.863514 +0530,
z o m p r e,0.0,non-word,z,1,27,127,73,134.1058541,,,,,,,,,134.09001590000003,134.1058541,134.1058541,134.6200066,134.7045718,z,0.5844687999999678,None,z,z,,,,008,001,2024-11-23_09h55.16.816,Lexical Decision Making,2024.1.5,None,2024-11-23 09h55.26.863514 +0530,
a n g e r,1.0,negative,m,1,28,128,44,134.71984280000004,,,,,,,,,134.7050966,134.71984280000004,134.71984280000004,,135.20350430000002,m,0.47901480000001584,None,m,m,,,,008,001,2024-11-23_09h55.16.816,Lexical Decision Making,2024.1.5,None,2024-11-23 09h55.26.863514 +0530,
s m i l e,1.0,positive,m,1,29,129,92,135.2185475,,,,,,,,,135.20405020000004,135.2185475,135.2185475,135.7338598,135.75240890000003,m,0.519146400000011,None,m,m,,,,008,001,2024-11-23_09h55.16.816,Lexical Decision Making,2024.1.5,None,2024-11-23 09h55.26.863514 +0530,
b l o r p,0.0,non-word,z,1,30,130,60,135.7670994,,,,,,,,,135.75300980000003,135.7670994,135.7670994,136.28304230000003,136.3331273,z,0.557896699999958,None,z,z,,,,008,001,2024-11-23_09h55.16.816,Lexical Decision Making,2024.1.5,None,2024-11-23 09h55.26.863514 +0530,
d r i n t,0.0,non-word,z,1,31,131,23,136.34866970000002,,,,,,,,,136.3336549,136.34866970000002,136.34866970000002,136.86415520000003,136.86529390000004,z,0.5065453999999932,None,z,z,,,,008,001,2024-11-23_09h55.16.816,Lexical Decision Making,2024.1.5,None,2024-11-23 09h55.26.863514 +0530,
t r e n k,0.0,non-word,z,1,32,132,57,136.8804697,,,,,,,,,136.8658324,136.8804697,136.8804697,137.39588200000003,137.43043140000003,z,0.5393474999999626,None,z,z,,,,008,001,2024-11-23_09h55.16.816,Lexical Decision Making,2024.1.5,None,2024-11-23 09h55.26.863514 +0530,
t a b l e,1.0,neutral,m,1,33,133,6,137.4456748,,,,,,,,,137.43097690000002,137.4456748,137.4456748,137.9607024,138.16134320000003,m,0.7045387000000005,None,m,m,,,,008,001,2024-11-23_09h55.16.816,Lexical Decision Making,2024.1.5,None,2024-11-23 09h55.26.863514 +0530,
p l o r,0.0,non-word,z,1,34,134,52,138.17695430000003,,,,,,,,,138.162168,138.17695430000003,138.17695430000003,138.69210950000002,138.8595277,z,0.6697063999999955,None,z,z,,,,008,001,2024-11-23_09h55.16.816,Lexical Decision Making,2024.1.5,None,2024-11-23 09h55.26.863514 +0530,
c h e e r,1.0,positive,m,1,35,135,63,138.87531360000003,,,,,,,,,138.86006000000003,138.87531360000003,138.87531360000003,139.3907979,139.5409816,m,0.6577242999999839,None,m,m,,,,008,001,2024-11-23_09h55.16.816,Lexical Decision Making,2024.1.5,None,2024-11-23 09h55.26.863514 +0530,
l o s s,1.0,negative,m,1,36,136,29,139.55643050000003,,,,,,,,,139.54197440000002,139.55643050000003,139.55643050000003,140.07198870000002,140.1893715,m,0.6212188999999739,None,m,m,,,,008,001,2024-11-23_09h55.16.816,Lexical Decision Making,2024.1.5,None,2024-11-23 09h55.26.863514 +0530,
b r a s k,0.0,non-word,z,1,37,137,79,140.20451610000003,,,,,,,,,140.1899001,140.20451610000003,140.20451610000003,140.72036910000003,140.83791100000002,z,0.6318393000000242,None,z,z,,,,008,001,2024-11-23_09h55.16.816,Lexical Decision Making,2024.1.5,None,2024-11-23 09h55.26.863514 +0530,
g r u f f i l,0.0,non-word,z,1,38,138,49,140.8529201,,,,,,,,,140.8384845,140.8529201,140.8529201,141.3679985,141.51878010000001,z,0.6598528000000101,None,z,z,,,,008,001,2024-11-23_09h55.16.816,Lexical Decision Making,2024.1.5,None,2024-11-23 09h55.26.863514 +0530,
g r i e f,1.0,negative,m,1,39,139,81,141.534331,,,,,,,,,141.519335,141.534331,141.534331,142.049578,142.2674953,m,0.7312314000000129,None,m,m,,,,008,001,2024-11-23_09h55.16.816,Lexical Decision Making,2024.1.5,None,2024-11-23 09h55.26.863514 +0530,
b l o r p,0.0,non-word,z,1,40,140,5,142.2823002,,,,,,,,,142.26850180000002,142.2823002,142.2823002,142.7974603,143.7296281,z,1.4389162999999598,None,z,z,,,,008,001,2024-11-23_09h55.16.816,Lexical Decision Making,2024.1.5,None,2024-11-23 09h55.26.863514 +0530,
e x c i t e d,1.0,positive,m,1,41,141,10,143.74491319999998,,,,,,,,,143.7303675,143.74491319999998,143.74491319999998,,144.1453343,m,0.39249829999999974,None,m,m,,,,008,001,2024-11-23_09h55.16.816,Lexical Decision Making,2024.1.5,None,2024-11-23 09h55.26.863514 +0530,
s u n s h i n e,1.0,positive,m,1,42,142,30,144.1608304,,,,,,,,,144.1458659,144.1608304,144.1608304,,144.59432800000002,m,0.42917850000003455,None,m,m,,,,008,001,2024-11-23_09h55.16.816,Lexical Decision Making,2024.1.5,None,2024-11-23 09h55.26.863514 +0530,
p l a r k,0.0,non-word,z,1,43,143,16,144.60947800000002,,,,,,,,,144.5948571,144.60947800000002,144.60947800000002,145.12470150000001,145.1757945,z,0.5606827000000294,None,z,z,,,,008,001,2024-11-23_09h55.16.816,Lexical Decision Making,2024.1.5,None,2024-11-23 09h55.26.863514 +0530,
s m i l e,1.0,positive,m,1,44,144,55,145.1912597,,,,,,,,,145.1763964,145.1912597,145.1912597,145.706429,145.72452850000002,m,0.5262641000000485,None,m,m,,,,008,001,2024-11-23_09h55.16.816,Lexical Decision Making,2024.1.5,None,2024-11-23 09h55.26.863514 +0530,
s w o r p y,0.0,non-word,z,1,45,145,69,145.74019910000004,,,,,,,,,145.72507660000002,145.74019910000004,145.74019910000004,146.25470610000002,146.42179850000002,z,0.664755600000035,None,z,z,,,,008,001,2024-11-23_09h55.16.816,Lexical Decision Making,2024.1.5,None,2024-11-23 09h55.26.863514 +0530,
p e a c e,1.0,positive,m,1,46,146,97,146.43765960000002,,,,,,,,,146.42234330000002,146.43765960000002,146.43765960000002,146.95286570000002,147.10353530000003,m,0.6523145000000454,None,m,m,,,,008,001,2024-11-23_09h55.16.816,Lexical Decision Making,2024.1.5,None,2024-11-23 09h55.26.863514 +0530,
c l o c k,1.0,neutral,m,1,47,147,48,147.1189276,,,,,,,,,147.10408610000002,147.1189276,147.1189276,147.6346423,147.70179870000004,m,0.5707519999999704,None,m,m,,,,008,001,2024-11-23_09h55.16.816,Lexical Decision Making,2024.1.5,None,2024-11-23 09h55.26.863514 +0530,
w a r,1.0,negative,m,1,48,148,67,147.71776370000003,,,,,,,,,147.7023274,147.71776370000003,147.71776370000003,148.2326152,148.2336196,m,0.5035779000000389,None,m,m,,,,008,001,2024-11-23_09h55.16.816,Lexical Decision Making,2024.1.5,None,2024-11-23 09h55.26.863514 +0530,
l o v e,1.0,positive,m,1,49,149,0,148.24919110000002,,,,,,,,,148.23420220000003,148.24919110000002,148.24919110000002,,148.6994868,m,0.4375709999999913,None,m,m,,,,008,001,2024-11-23_09h55.16.816,Lexical Decision Making,2024.1.5,None,2024-11-23 09h55.26.863514 +0530,
v i c t o r y,1.0,positive,m,1,50,150,25,148.71493350000003,,,,,,,,,148.7000448,148.71493350000003,148.71493350000003,149.2298664,149.2475331,m,0.5170413999999823,None,m,m,,,,008,001,2024-11-23_09h55.16.816,Lexical Decision Making,2024.1.5,None,2024-11-23 09h55.26.863514 +0530,
g r i e f,1.0,negative,m,1,51,151,62,149.26305510000003,,,,,,,,,149.24807850000002,149.26305510000003,149.26305510000003,,149.71311350000002,m,0.43545199999999795,None,m,m,,,,008,001,2024-11-23_09h55.16.816,Lexical Decision Making,2024.1.5,None,2024-11-23 09h55.26.863514 +0530,
c r i o u s,0.0,non-word,z,1,52,152,99,149.7289682,,,,,,,,,149.7140591,149.7289682,149.7289682,150.24402780000003,150.5612615,z,0.8153573999999821,None,z,z,,,,008,001,2024-11-23_09h55.16.816,Lexical Decision Making,2024.1.5,None,2024-11-23 09h55.26.863514 +0530,
q u i b l e n,0.0,non-word,z,1,53,153,91,150.57656730000002,,,,,,,,,150.56192049999999,150.57656730000002,150.57656730000002,151.091519,151.20908359999999,z,0.617655300000024,None,z,z,,,,008,001,2024-11-23_09h55.16.816,Lexical Decision Making,2024.1.5,None,2024-11-23 09h55.26.863514 +0530,
g r i n d l e,0.0,non-word,z,1,54,154,54,151.22478060000003,,,,,,,,,151.20975800000002,151.22478060000003,151.22478060000003,151.7397901,151.72419990000003,z,0.49440060000000585,None,z,z,,,,008,001,2024-11-23_09h55.16.816,Lexical Decision Making,2024.1.5,None,2024-11-23 09h55.26.863514 +0530,
c e l e b r a t i o n,1.0,positive,m,1,55,155,75,151.7397901,,,,,,,,,151.72472950000002,151.7397901,151.7397901,152.25514300000003,152.77118710000002,m,1.019669600000043,None,m,m,,,,008,001,2024-11-23_09h55.16.816,Lexical Decision Making,2024.1.5,None,2024-11-23 09h55.26.863514 +0530,
e x c i t e d,1.0,positive,m,1,56,156,72,152.78703490000004,,,,,,,,,152.7720188,152.78703490000004,152.78703490000004,,153.27006540000002,m,0.4739529000000289,None,m,m,,,,008,001,2024-11-23_09h55.16.816,Lexical Decision Making,2024.1.5,None,2024-11-23 09h55.26.863514 +0530,
g r i n d l e,0.0,non-word,z,1,57,157,3,153.2863779,,,,,,,,,153.2706068,153.2863779,153.2863779,153.8013173,153.9524237,z,0.6628059999999891,None,z,z,,,,008,001,2024-11-23_09h55.16.816,Lexical Decision Making,2024.1.5,None,2024-11-23 09h55.26.863514 +0530,
c o m f o r t,1.0,positive,m,1,58,158,59,153.96688950000004,,,,,,,,,153.9529642,153.96688950000004,153.96688950000004,,154.43404930000003,m,0.46033330000000205,None,m,m,,,,008,001,2024-11-23_09h55.16.816,Lexical Decision Making,2024.1.5,None,2024-11-23 09h55.26.863514 +0530,
a n g e r,1.0,negative,m,1,59,159,15,154.4491157,,,,,,,,,154.4346038,154.4491157,154.4491157,154.9642874,154.98280570000003,m,0.5236760999999888,None,m,m,,,,008,001,2024-11-23_09h55.16.816,Lexical Decision Making,2024.1.5,None,2024-11-23 09h55.26.863514 +0530,
r e g r e t,1.0,negative,m,1,60,160,64,154.9976418,,,,,,,,,154.98345240000003,154.9976418,154.9976418,155.51291880000002,155.5978966,m,0.5982353999999646,None,m,m,,,,008,001,2024-11-23_09h55.16.816,Lexical Decision Making,2024.1.5,None,2024-11-23 09h55.26.863514 +0530,
c h e e r f u l,1.0,positive,m,1,61,161,43,155.612509,,,,,,,,,155.5984568,155.612509,155.612509,156.1277109,156.2615953,m,0.6360038999999915,None,m,m,,,,008,001,2024-11-23_09h55.16.816,Lexical Decision Making,2024.1.5,None,2024-11-23 09h55.26.863514 +0530,
t r a g e d y,1.0,negative,m,1,62,162,70,156.2772554,,,,,,,,,156.26219550000002,156.2772554,156.2772554,156.7764075,156.9937981,m,0.7009654000000296,None,m,m,,,,008,001,2024-11-23_09h55.16.816,Lexical Decision Making,2024.1.5,None,2024-11-23 09h55.26.863514 +0530,
g r a t i t u d e,1.0,positive,m,1,63,163,41,157.0090558,,,,,,,,,156.9943874,157.0090558,157.0090558,157.5243569,157.59247650000003,m,0.5709254000000215,None,m,m,,,,008,001,2024-11-23_09h55.16.816,Lexical Decision Making,2024.1.5,None,2024-11-23 09h55.26.863514 +0530,
f l o r t,0.0,non-word,z,1,64,164,11,157.60728270000004,,,,,,,,,157.5932548,157.60728270000004,157.60728270000004,158.12260600000002,158.22324980000002,z,0.6017683000000034,None,z,z,,,,008,001,2024-11-23_09h55.16.816,Lexical Decision Making,2024.1.5,None,2024-11-23 09h55.26.863514 +0530,
p l a r k,0.0,non-word,z,1,65,165,45,158.2389672,,,,,,,,,158.2238372,158.2389672,158.2389672,158.75391330000002,158.80500130000001,z,0.5600819999999658,None,z,z,,,,008,001,2024-11-23_09h55.16.816,Lexical Decision Making,2024.1.5,None,2024-11-23 09h55.26.863514 +0530,
v a b l i n,0.0,non-word,z,1,66,166,1,158.8206359,,,,,,,,,158.8057017,158.8206359,158.8206359,159.33565600000003,159.3698533,z,0.5399777999999742,None,z,z,,,,008,001,2024-11-23_09h55.16.816,Lexical Decision Making,2024.1.5,None,2024-11-23 09h55.26.863514 +0530,
p e n c i l,1.0,neutral,m,1,67,167,37,159.38544110000004,,,,,,,,,159.37044810000003,159.38544110000004,159.38544110000004,159.90103700000003,159.9022182,m,0.5155942000000096,None,m,m,,,,008,001,2024-11-23_09h55.16.816,Lexical Decision Making,2024.1.5,None,2024-11-23 09h55.26.863514 +0530,
m u r k l e,0.0,non-word,z,1,68,168,66,159.9177459,,,,,,,,,159.9027473,159.9177459,159.9177459,160.43291320000003,160.68336850000003,z,0.764219799999978,None,z,z,,,,008,001,2024-11-23_09h55.16.816,Lexical Decision Making,2024.1.5,None,2024-11-23 09h55.26.863514 +0530,
s a d,1.0,negative,m,1,69,169,87,160.6986491,,,,,,,,,160.6839101,160.6986491,160.6986491,161.2140121,161.2155034,m,0.5095767999999907,None,m,m,,,,008,001,2024-11-23_09h55.16.816,Lexical Decision Making,2024.1.5,None,2024-11-23 09h55.26.863514 +0530,
c a b l e,1.0,neutral,m,1,70,170,78,161.23042350000003,,,,,,,,,161.216068,161.23042350000003,161.23042350000003,161.72957210000004,161.830101,m,0.5890418000000182,None,m,m,,,,008,001,2024-11-23_09h55.16.816,Lexical Decision Making,2024.1.5,None,2024-11-23 09h55.26.863514 +0530,
g r i e f,1.0,negative,m,1,71,171,50,161.8458319,,,,,,,,,161.83083520000002,161.8458319,161.8458319,162.3607629,163.40939480000003,m,1.5498902999999586,None,m,m,,,,008,001,2024-11-23_09h55.16.816,Lexical Decision Making,2024.1.5,None,2024-11-23 09h55.26.863514 +0530,
l a m p,1.0,neutral,m,1,72,172,18,163.4248822,,,,,,,,,163.40992820000002,163.4248822,163.4248822,163.9400096,164.2900264,m,0.862475599999982,None,m,m,,,,008,001,2024-11-23_09h55.16.816,Lexical Decision Making,2024.1.5,None,2024-11-23 09h55.26.863514 +0530,
d e l i g h t,1.0,positive,m,1,73,173,39,164.30562450000002,,,,,,,,,164.29055620000003,164.30562450000002,164.30562450000002,164.82096840000003,165.23752560000003,m,0.9208033000000455,None,m,m,,,,008,001,2024-11-23_09h55.16.816,Lexical Decision Making,2024.1.5,None,2024-11-23 09h55.26.863514 +0530,
s m a g l e,0.0,non-word,z,1,74,174,53,165.2528325,,,,,,,,,165.2380534,165.2528325,165.2528325,165.7685201,165.78704120000003,z,0.5184454999999843,None,z,z,,,,008,001,2024-11-23_09h55.16.816,Lexical Decision Making,2024.1.5,None,2024-11-23 09h55.26.863514 +0530,
a p p l e,1.0,neutral,m,1,75,175,32,165.80146540000004,,,,,,,,,165.78759580000002,165.80146540000004,165.80146540000004,166.31665170000002,166.31773900000002,m,0.5090053999999782,None,m,m,,,,008,001,2024-11-23_09h55.16.816,Lexical Decision Making,2024.1.5,None,2024-11-23 09h55.26.863514 +0530,
s m o r n,0.0,non-word,z,1,76,176,51,166.3332638,,,,,,,,,166.31827000000004,166.3332638,166.3332638,166.84847260000004,167.0493029,z,0.7058696999999938,None,z,z,,,,008,001,2024-11-23_09h55.16.816,Lexical Decision Making,2024.1.5,None,2024-11-23 09h55.26.863514 +0530,
c r y,1.0,negative,m,1,77,177,61,167.06482010000002,,,,,,,,,167.0499104,167.06482010000002,167.06482010000002,167.58019890000003,167.68091480000004,m,0.6066771000000131,None,m,m,,,,008,001,2024-11-23_09h55.16.816,Lexical Decision Making,2024.1.5,None,2024-11-23 09h55.26.863514 +0530,
p e n c i l,1.0,neutral,m,1,78,178,24,167.69619820000003,,,,,,,,,167.68156400000004,167.69619820000003,167.69619820000003,168.21129810000002,168.26304570000002,m,0.5627178000000299,None,m,m,,,,008,001,2024-11-23_09h55.16.816,Lexical Decision Making,2024.1.5,None,2024-11-23 09h55.26.863514 +0530,
c a r p e t,1.0,neutral,m,1,79,179,85,168.2778783,,,,,,,,,168.26372020000002,168.2778783,168.2778783,168.79343850000004,168.9271175,m,0.6461480000000392,None,m,m,,,,008,001,2024-11-23_09h55.16.816,Lexical Decision Making,2024.1.5,None,2024-11-23 09h55.26.863514 +0530,
z a r f e t,0.0,non-word,z,1,80,180,31,168.9429942,,,,,,,,,168.9276456,168.9429942,168.9429942,169.45840450000003,169.52644480000004,z,0.5776033999999868,None,z,z,,,,008,001,2024-11-23_09h55.16.816,Lexical Decision Making,2024.1.5,None,2024-11-23 09h55.26.863514 +0530,
f a i l u r e,1.0,negative,m,1,81,181,77,169.5413413,,,,,,,,,169.5269945,169.5413413,169.5413413,170.0564804,170.07425740000002,m,0.5209295000000225,None,m,m,,,,008,001,2024-11-23_09h55.16.816,Lexical Decision Making,2024.1.5,None,2024-11-23 09h55.26.863514 +0530,
d e s p a i r,1.0,negative,m,1,82,182,56,170.08980760000003,,,,,,,,,170.07479470000004,170.08980760000003,170.08980760000003,170.60507670000004,170.62260230000004,m,0.5292782999999872,None,m,m,,,,008,001,2024-11-23_09h55.16.816,Lexical Decision Making,2024.1.5,None,2024-11-23 09h55.26.863514 +0530,
j o y f u l,1.0,positive,m,1,83,183,19,170.6381358,,,,,,,,,170.6232215,170.6381358,170.6381358,171.15343590000003,171.2041157,m,0.5566924000000313,None,m,m,,,,008,001,2024-11-23_09h55.16.816,Lexical Decision Making,2024.1.5,None,2024-11-23 09h55.26.863514 +0530,
d r e n k,0.0,non-word,z,1,84,184,4,171.2200524,,,,,,,,,171.20478990000004,171.2200524,171.2200524,171.73518130000002,171.76972690000002,z,0.5363480999999979,None,z,z,,,,008,001,2024-11-23_09h55.16.816,Lexical Decision Making,2024.1.5,None,2024-11-23 09h55.26.863514 +0530,
h a t e,1.0,negative,m,1,85,185,74,171.78517220000003,,,,,,,,,171.7702577,171.78517220000003,171.78517220000003,,172.26825280000003,m,0.478660399999967,None,m,m,,,,008,001,2024-11-23_09h55.16.816,Lexical Decision Making,2024.1.5,None,2024-11-23 09h55.26.863514 +0530,
v o b l i t,0.0,non-word,z,1,86,186,38,172.28381100000001,,,,,,,,,172.2691539,172.28381100000001,172.28381100000001,172.79911350000003,172.90025890000004,z,0.6100283000000104,None,z,z,,,,008,001,2024-11-23_09h55.16.816,Lexical Decision Making,2024.1.5,None,2024-11-23 09h55.26.863514 +0530,
t r a i n,1.0,neutral,m,1,87,187,40,172.915189,,,,,,,,,172.9008048,172.915189,172.915189,173.4139821,173.465235,m,0.5484212999999727,None,m,m,,,,008,001,2024-11-23_09h55.16.816,Lexical Decision Making,2024.1.5,None,2024-11-23 09h55.26.863514 +0530,
f e a r f u l,1.0,negative,m,1,88,188,2,173.48065860000003,,,,,,,,,173.46576220000003,173.48065860000003,173.48065860000003,173.99546550000002,173.9799509,m,0.4948511000000053,None,m,m,,,,008,001,2024-11-23_09h55.16.816,Lexical Decision Making,2024.1.5,None,2024-11-23 09h55.26.863514 +0530,
g l o r b y,0.0,non-word,z,1,89,189,28,173.99546550000002,,,,,,,,,173.98051430000004,173.99546550000002,173.99546550000002,174.5109468,174.4953613,z,0.49558020000000624,None,z,z,,,,008,001,2024-11-23_09h55.16.816,Lexical Decision Making,2024.1.5,None,2024-11-23 09h55.26.863514 +0530,
d r i n t,0.0,non-word,z,1,90,190,36,174.5109468,,,,,,,,,174.49590870000003,174.5109468,174.5109468,175.0262525,175.01065640000002,z,0.49065869999998313,None,z,z,,,,008,001,2024-11-23_09h55.16.816,Lexical Decision Making,2024.1.5,None,2024-11-23 09h55.26.863514 +0530,
p l a n e t,1.0,neutral,m,1,91,191,47,175.0262525,,,,,,,,,175.0112105,175.0262525,175.0262525,175.5416015,175.5756167,m,0.5394510999999511,None,m,m,,,,008,001,2024-11-23_09h55.16.816,Lexical Decision Making,2024.1.5,None,2024-11-23 09h55.26.863514 +0530,
m e t r o,1.0,neutral,m,1,92,192,96,175.59127870000003,,,,,,,,,175.57615320000002,175.59127870000003,175.59127870000003,,176.0748661,m,0.47468789999999217,None,m,m,,,,008,001,2024-11-23_09h55.16.816,Lexical Decision Making,2024.1.5,None,2024-11-23 09h55.26.863514 +0530,
c h a i r,1.0,neutral,m,1,93,193,7,176.0901872,,,,,,,,,176.0758158,176.0901872,176.0901872,176.60537120000004,176.6064586,m,0.5088605999999913,None,m,m,,,,008,001,2024-11-23_09h55.16.816,Lexical Decision Making,2024.1.5,None,2024-11-23 09h55.26.863514 +0530,
c l i b b e t,0.0,non-word,z,1,94,194,12,176.62167240000002,,,,,,,,,176.6070143,176.62167240000002,176.62167240000002,177.13725920000002,177.1214797,z,0.4890895999999998,None,z,z,,,,008,001,2024-11-23_09h55.16.816,Lexical Decision Making,2024.1.5,None,2024-11-23 09h55.26.863514 +0530,
s a d n e s s,1.0,negative,m,1,95,195,88,177.13725920000002,,,,,,,,,177.1220409,177.13725920000002,177.13725920000002,177.65224160000002,177.67032870000003,m,0.5232968999999912,None,m,m,,,,008,001,2024-11-23_09h55.16.816,Lexical Decision Making,2024.1.5,None,2024-11-23 09h55.26.863514 +0530,
s a d n e s s,1.0,negative,m,1,96,196,65,177.685701,,,,,,,,,177.67091010000001,177.685701,177.685701,178.18424650000003,184.5346798,m,6.8378017,None,m,m,,,,008,001,2024-11-23_09h55.16.816,Lexical Decision Making,2024.1.5,None,2024-11-23 09h55.26.863514 +0530,
d r o n t,0.0,non-word,z,1,97,197,95,184.55046220000003,,,,,,,,,184.5354163,184.55046220000003,184.55046220000003,185.0654502,185.08284220000002,z,0.5260461999999961,None,z,z,,,,008,001,2024-11-23_09h55.16.816,Lexical Decision Making,2024.1.5,None,2024-11-23 09h55.26.863514 +0530,
c h i n d l e,0.0,non-word,z,1,98,198,8,185.0985313,,,,,,,,,185.0838999,185.0985313,185.0985313,,185.56490910000002,m,0.4599130999999943,None,m,z,,,,008,001,2024-11-23_09h55.16.816,Lexical Decision Making,2024.1.5,None,2024-11-23 09h55.26.863514 +0530,
w i n d o w,1.0,neutral,m,1,99,199,68,185.5805342,,,,,,,,,185.56544680000002,185.5805342,185.5805342,186.0963375,186.0806501,m,0.49539310000000114,None,m,m,,,,008,001,2024-11-23_09h55.16.816,Lexical Decision Making,2024.1.5,None,2024-11-23 09h55.26.863514 +0530,
g r i n d l e,0.0,non-word,z,2,0,200,17,186.0963375,,,,,,,,,186.0811991,186.0963375,186.0963375,186.61119460000003,186.62962190000002,m,0.5198068999999919,None,m,z,,,,008,001,2024-11-23_09h55.16.816,Lexical Decision Making,2024.1.5,None,2024-11-23 09h55.26.863514 +0530,
b r a s k,0.0,non-word,z,2,1,201,79,186.6450286,,,,,,,,,186.6303689,186.6450286,186.6450286,187.15984500000002,187.32763110000002,m,0.6717873999999711,None,m,z,,,,008,001,2024-11-23_09h55.16.816,Lexical Decision Making,2024.1.5,None,2024-11-23 09h55.26.863514 +0530,
b o o k,1.0,neutral,m,2,2,202,22,187.34299300000004,,,,,,,,,187.32825480000002,187.34299300000004,187.34299300000004,187.85774680000003,189.1722294,m,1.8259810999999786,None,m,m,,,,008,001,2024-11-23_09h55.16.816,Lexical Decision Making,2024.1.5,None,2024-11-23 09h55.26.863514 +0530,
s m i l e,1.0,positive,m,2,3,203,92,189.1876433,,,,,,,,,189.1729001,189.1876433,189.1876433,,189.65464120000001,m,0.46544810000000325,None,m,m,,,,008,001,2024-11-23_09h55.16.816,Lexical Decision Making,2024.1.5,None,2024-11-23 09h55.26.863514 +0530,
e x c i t e d,1.0,positive,m,2,4,204,10,189.6695251,,,,,,,,,189.6551884,189.6695251,189.6695251,190.18493080000002,191.2164527,m,1.5450607000000218,None,m,m,,,,008,001,2024-11-23_09h55.16.816,Lexical Decision Making,2024.1.5,None,2024-11-23 09h55.26.863514 +0530,
g r a t i t u d e,1.0,positive,m,2,5,205,41,191.2322415,,,,,,,,,191.2172781,191.2322415,191.2322415,,191.7151075,m,0.4698554999999942,None,m,m,,,,008,001,2024-11-23_09h55.16.816,Lexical Decision Making,2024.1.5,None,2024-11-23 09h55.26.863514 +0530,
g r i n d l e,0.0,non-word,z,2,6,206,3,191.73073950000003,,,,,,,,,191.7157484,191.73073950000003,191.73073950000003,192.2458899,192.31308110000003,z,0.572291899999982,None,z,z,,,,008,001,2024-11-23_09h55.16.816,Lexical Decision Making,2024.1.5,None,2024-11-23 09h55.26.863514 +0530,
h o p e,1.0,positive,m,2,7,207,46,192.3288806,,,,,,,,,192.3136414,192.3288806,192.3288806,192.84402900000003,192.84526550000004,m,0.5041671999999835,None,m,m,,,,008,001,2024-11-23_09h55.16.816,Lexical Decision Making,2024.1.5,None,2024-11-23 09h55.26.863514 +0530,
p e n c i l,1.0,neutral,m,2,8,208,37,192.8606461,,,,,,,,,192.84586480000002,192.8606461,192.8606461,193.3594959,193.3608076,m,0.4965166999999724,None,m,m,,,,008,001,2024-11-23_09h55.16.816,Lexical Decision Making,2024.1.5,None,2024-11-23 09h55.26.863514 +0530,
h a t e,1.0,negative,m,2,9,209,74,193.37588370000003,,,,,,,,,193.36142230000002,193.37588370000003,193.37588370000003,193.8914171,193.94283490000004,m,0.5495200999999952,None,m,m,,,,008,001,2024-11-23_09h55.16.816,Lexical Decision Making,2024.1.5,None,2024-11-23 09h55.26.863514 +0530,
s a d,1.0,negative,m,2,10,210,87,193.95793170000002,,,,,,,,,193.94338220000003,193.95793170000002,193.95793170000002,194.4567581,194.47487640000003,m,0.5136981999999648,None,m,m,,,,008,001,2024-11-23_09h55.16.816,Lexical Decision Making,2024.1.5,None,2024-11-23 09h55.26.863514 +0530,
c h e e r,1.0,positive,m,2,11,211,63,194.4898503,,,,,,,,,194.4753998,194.4898503,194.4898503,195.00483940000004,195.13937980000003,z,0.6378144999999904,None,z,m,,,,008,001,2024-11-23_09h55.16.816,Lexical Decision Making,2024.1.5,None,2024-11-23 09h55.26.863514 +0530,
g r i e f,1.0,negative,m,2,12,212,50,195.15480160000004,,,,,,,,,195.1401512,195.15480160000004,195.15480160000004,195.66976900000003,196.40250939999999,m,1.2385575999999787,None,m,m,,,,008,001,2024-11-23_09h55.16.816,Lexical Decision Making,2024.1.5,None,2024-11-23 09h55.26.863514 +0530,
p e a c e,1.0,positive,m,2,13,213,89,196.417864,,,,,,,,,196.40307130000002,196.417864,196.417864,196.91683900000004,196.9017885,m,0.48268760000001976,None,m,m,,,,008,001,2024-11-23_09h55.16.816,Lexical Decision Making,2024.1.5,None,2024-11-23 09h55.26.863514 +0530,
d r i n t,0.0,non-word,z,2,14,214,23,196.91683900000004,,,,,,,,,196.90236720000001,196.91683900000004,196.91683900000004,197.43157360000004,197.5656666,z,0.6412170000000401,None,z,z,,,,008,001,2024-11-23_09h55.16.816,Lexical Decision Making,2024.1.5,None,2024-11-23 09h55.26.863514 +0530,
d r e a m,1.0,positive,m,2,15,215,9,197.58126400000003,,,,,,,,,197.56624090000003,197.58126400000003,197.58126400000003,198.0800858,198.1474922,m,0.5581250999999838,None,m,m,,,,008,001,2024-11-23_09h55.16.816,Lexical Decision Making,2024.1.5,None,2024-11-23 09h55.26.863514 +0530,
c r y,1.0,negative,m,2,16,216,61,198.16288990000004,,,,,,,,,198.1480194,198.16288990000004,198.16288990000004,,198.62987070000003,m,0.45569560000001275,None,m,m,,,,008,001,2024-11-23_09h55.16.816,Lexical Decision Making,2024.1.5,None,2024-11-23 09h55.26.863514 +0530,
a n g e r,1.0,negative,m,2,17,217,15,198.64525050000003,,,,,,,,,198.63039500000002,198.64525050000003,198.64525050000003,199.1604471,199.1618348,m,0.507416400000011,None,m,m,,,,008,001,2024-11-23_09h55.16.816,Lexical Decision Making,2024.1.5,None,2024-11-23 09h55.26.863514 +0530,
l o v e,1.0,positive,m,2,18,218,0,199.1770737,,,,,,,,,199.16242019999999,199.1770737,199.1770737,199.69219960000004,199.6769021,m,0.4888410000000363,None,m,m,,,,008,001,2024-11-23_09h55.16.816,Lexical Decision Making,2024.1.5,None,2024-11-23 09h55.26.863514 +0530,
g l o r b y,0.0,non-word,z,2,19,219,28,199.69219960000004,,,,,,,,,199.6774302,199.69219960000004,199.69219960000004,200.2082552,200.22506950000002,z,0.5204986999999619,None,z,z,,,,008,001,2024-11-23_09h55.16.816,Lexical Decision Making,2024.1.5,None,2024-11-23 09h55.26.863514 +0530,
f e a r f u l,1.0,negative,m,2,20,220,2,200.240635,,,,,,,,,200.22571770000002,200.240635,200.240635,200.7562039,201.15562770000003,m,0.9065135999999825,None,m,m,,,,008,001,2024-11-23_09h55.16.816,Lexical Decision Making,2024.1.5,None,2024-11-23 09h55.26.863514 +0530,
w a r,1.0,negative,m,2,21,221,67,201.1712693,,,,,,,,,201.1561597,201.1712693,201.1712693,201.68676350000004,201.8040911,m,0.6199225999999953,None,m,m,,,,008,001,2024-11-23_09h55.16.816,Lexical Decision Making,2024.1.5,None,2024-11-23 09h55.26.863514 +0530,
s u c c e s s,1.0,positive,m,2,22,222,35,201.8200332,,,,,,,,,201.8046299,201.8200332,201.8200332,202.33490850000004,202.9011929,m,1.0717617999999902,None,m,m,,,,008,001,2024-11-23_09h55.16.816,Lexical Decision Making,2024.1.5,None,2024-11-23 09h55.26.863514 +0530,
f a i l u r e,1.0,negative,m,2,23,223,77,202.9167033,,,,,,,,,202.9017146,202.9167033,202.9167033,203.4318146,203.84832540000002,m,0.9227232000000072,None,m,m,,,,008,001,2024-11-23_09h55.16.816,Lexical Decision Making,2024.1.5,None,2024-11-23 09h55.26.863514 +0530,
s m i l e,1.0,positive,m,2,24,224,55,203.8638747,,,,,,,,,203.84885050000003,203.8638747,203.8638747,204.3626613,204.39687000000004,m,0.5165832000000137,None,m,m,,,,008,001,2024-11-23_09h55.16.816,Lexical Decision Making,2024.1.5,None,2024-11-23 09h55.26.863514 +0530,
t r a g e d y,1.0,negative,m,2,25,225,70,204.41287690000001,,,,,,,,,204.39746080000003,204.41287690000001,204.41287690000001,204.92801500000002,204.9955165,m,0.5792783999999642,None,m,m,,,,008,001,2024-11-23_09h55.16.816,Lexical Decision Making,2024.1.5,None,2024-11-23 09h55.26.863514 +0530,
d e s p a i r,1.0,negative,m,2,26,226,56,205.011072,,,,,,,,,204.99604600000004,205.011072,205.011072,205.5266899,205.6103346,m,0.591368100000011,None,m,m,,,,008,001,2024-11-23_09h55.16.816,Lexical Decision Making,2024.1.5,None,2024-11-23 09h55.26.863514 +0530,
f e a r f u l,1.0,negative,m,2,27,227,98,205.62584430000004,,,,,,,,,205.6110183,205.62584430000004,205.62584430000004,206.14107330000002,206.29181700000004,m,0.6539156000000048,None,m,m,,,,008,001,2024-11-23_09h55.16.816,Lexical Decision Making,2024.1.5,None,2024-11-23 09h55.26.863514 +0530,
b l o r p,0.0,non-word,z,2,28,228,60,206.3079025,,,,,,,,,206.29235340000002,206.3079025,206.3079025,206.8225784,207.33908230000003,z,1.0239972000000535,None,z,z,,,,008,001,2024-11-23_09h55.16.816,Lexical Decision Making,2024.1.5,None,2024-11-23 09h55.26.863514 +0530,
m o u n t a i n,1.0,neutral,m,2,29,229,71,207.35474830000004,,,,,,,,,207.33960940000003,207.35474830000004,207.35474830000004,207.8697168,208.0039847,m,0.6375092999999765,None,m,m,,,,008,001,2024-11-23_09h55.16.816,Lexical Decision Making,2024.1.5,None,2024-11-23 09h55.26.863514 +0530,
s t o n e,1.0,neutral,m,2,30,230,13,208.01962660000004,,,,,,,,,208.004588,208.01962660000004,208.01962660000004,208.53515880000003,208.61964740000002,m,0.5897752000000196,None,m,m,,,,008,001,2024-11-23_09h55.16.816,Lexical Decision Making,2024.1.5,None,2024-11-23 09h55.26.863514 +0530,
s o r r o w,1.0,negative,m,2,31,231,33,208.6347071,,,,,,,,,208.6201964,208.6347071,208.6347071,209.14960360000003,210.11505640000001,m,1.471914599999991,None,m,m,,,,008,001,2024-11-23_09h55.16.816,Lexical Decision Making,2024.1.5,None,2024-11-23 09h55.26.863514 +0530,
v a b l i n,0.0,non-word,z,2,32,232,1,210.13052120000003,,,,,,,,,210.11575350000004,210.13052120000003,210.13052120000003,210.6457888,211.52823130000002,z,1.3949293000000011,None,z,z,,,,008,001,2024-11-23_09h55.16.816,Lexical Decision Making,2024.1.5,None,2024-11-23 09h55.26.863514 +0530,
k i n d n e s s,1.0,positive,m,2,33,233,82,211.54314720000002,,,,,,,,,211.5292788,211.54314720000002,211.54314720000002,,211.91020710000004,m,0.3530815999999959,None,m,m,,,,008,001,2024-11-23_09h55.16.816,Lexical Decision Making,2024.1.5,None,2024-11-23 09h55.26.863514 +0530,
s w o r p y,0.0,non-word,z,2,34,234,69,211.92584900000003,,,,,,,,,211.91092610000004,211.92584900000003,211.92584900000003,212.44062050000002,213.42278850000002,z,1.4798139000000106,None,z,z,,,,008,001,2024-11-23_09h55.16.816,Lexical Decision Making,2024.1.5,None,2024-11-23 09h55.26.863514 +0530,
l a m p,1.0,neutral,m,2,35,235,42,213.4378208,,,,,,,,,213.4233355,213.4378208,213.4378208,213.9364933,213.92187160000003,m,0.46704770000002327,None,m,m,,,,008,001,2024-11-23_09h55.16.816,Lexical Decision Making,2024.1.5,None,2024-11-23 09h55.26.863514 +0530,
a p p l e,1.0,neutral,m,2,36,236,32,213.9364933,,,,,,,,,213.92243460000003,213.9364933,213.9364933,214.4519586,214.48589900000002,m,0.5388359000000378,None,m,m,,,,008,001,2024-11-23_09h55.16.816,Lexical Decision Making,2024.1.5,None,2024-11-23 09h55.26.863514 +0530,
b l o r p,0.0,non-word,z,2,37,237,5,214.5023054,,,,,,,,,214.48646430000002,214.5023054,214.5023054,215.0168082,215.1506078,z,0.6314443999999639,None,z,z,,,,008,001,2024-11-23_09h55.16.816,Lexical Decision Making,2024.1.5,None,2024-11-23 09h55.26.863514 +0530,
p l a n e t,1.0,neutral,m,2,38,238,47,215.1664359,,,,,,,,,215.1512406,215.1664359,215.1664359,215.6820287,215.7827282,m,0.6006929000000127,None,m,m,,,,008,001,2024-11-23_09h55.16.816,Lexical Decision Making,2024.1.5,None,2024-11-23 09h55.26.863514 +0530,
p a i n,1.0,negative,m,2,39,239,83,215.7980104,,,,,,,,,215.78338610000003,215.7980104,215.7980104,,216.26479090000004,m,0.45355969999997114,None,m,m,,,,008,001,2024-11-23_09h55.16.816,Lexical Decision Making,2024.1.5,None,2024-11-23 09h55.26.863514 +0530,
s u n s h i n e,1.0,positive,m,2,40,240,30,216.2806774,,,,,,,,,216.2653247,216.2806774,216.2806774,216.7954924,216.78044979999999,m,0.4986824999999726,None,m,m,,,,008,001,2024-11-23_09h55.16.816,Lexical Decision Making,2024.1.5,None,2024-11-23 09h55.26.863514 +0530,
a n g e r,1.0,negative,m,2,41,241,44,216.7954924,,,,,,,,,216.78098010000002,216.7954924,216.7954924,,217.26178550000003,m,0.45327580000002854,None,m,m,,,,008,001,2024-11-23_09h55.16.816,Lexical Decision Making,2024.1.5,None,2024-11-23 09h55.26.863514 +0530,
t w o r i k,0.0,non-word,z,2,42,242,93,217.2776955,,,,,,,,,217.2624411,217.2776955,217.2776955,217.79259410000003,217.79379580000005,z,0.5120333999999502,None,z,z,,,,008,001,2024-11-23_09h55.16.816,Lexical Decision Making,2024.1.5,None,2024-11-23 09h55.26.863514 +0530,
c l i b b e t,0.0,non-word,z,2,43,243,12,217.8097571,,,,,,,,,217.7943297,217.8097571,217.8097571,218.32462060000006,218.3094987,z,0.4941595000000234,None,z,z,,,,008,001,2024-11-23_09h55.16.816,Lexical Decision Making,2024.1.5,None,2024-11-23 09h55.26.863514 +0530,
g r i e f,1.0,negative,m,2,44,244,81,218.32462060000006,,,,,,,,,218.3100496,218.32462060000006,218.32462060000006,218.84003550000006,218.90745240000007,m,0.5756299999999328,None,m,m,,,,008,001,2024-11-23_09h55.16.816,Lexical Decision Making,2024.1.5,None,2024-11-23 09h55.26.863514 +0530,
r e g r e t,1.0,negative,m,2,45,245,64,218.92298869999996,,,,,,,,,218.90797460000005,218.92298869999996,218.92298869999996,219.43920370000006,219.55585350000007,m,0.6182585000000245,None,m,m,,,,008,001,2024-11-23_09h55.16.816,Lexical Decision Making,2024.1.5,None,2024-11-23 09h55.26.863514 +0530,
t r a i n,1.0,neutral,m,2,46,246,40,219.57145870000005,,,,,,,,,219.55639650000006,219.57145870000005,219.57145870000005,220.08631299999996,220.22042249999998,m,0.6406195999999227,None,m,m,,,,008,001,2024-11-23_09h55.16.816,Lexical Decision Making,2024.1.5,None,2024-11-23 09h55.26.863514 +0530,
p l a r k,0.0,non-word,z,2,47,247,16,220.2358972,,,,,,,,,220.22094620000001,220.2358972,220.2358972,220.7348894,220.76919049999998,z,0.53103729999998,None,z,z,,,,008,001,2024-11-23_09h55.16.816,Lexical Decision Making,2024.1.5,None,2024-11-23 09h55.26.863514 +0530,
p l a r k,0.0,non-word,z,2,48,248,45,220.78455790000004,,,,,,,,,220.76972719999998,220.78455790000004,220.78455790000004,,221.2677008,z,0.4798566000000619,None,z,z,,,,008,001,2024-11-23_09h55.16.816,Lexical Decision Making,2024.1.5,None,2024-11-23 09h55.26.863514 +0530,
a c h i e v e m e n t,1.0,positive,m,2,49,249,27,221.28303950000003,,,,,,,,,221.26849050000004,221.28303950000003,221.28303950000003,221.79841960000005,222.29873909999998,m,1.012909000000036,None,m,m,,,,008,001,2024-11-23_09h55.16.816,Lexical Decision Making,2024.1.5,None,2024-11-23 09h55.26.863514 +0530,
d r i n t,0.0,non-word,z,2,50,250,36,222.31363470000002,,,,,,,,,222.29939070000006,222.31363470000002,222.31363470000002,222.8124098,223.04625490000006,z,0.7184053999999378,None,z,z,,,,008,001,2024-11-23_09h55.16.816,Lexical Decision Making,2024.1.5,None,2024-11-23 09h55.26.863514 +0530,
v o b l i t,0.0,non-word,z,2,51,251,38,223.06160560000006,,,,,,,,,223.04679849999997,223.06160560000006,223.06160560000006,,223.4793596,z,0.4153620999999248,None,z,z,,,,008,001,2024-11-23_09h55.16.816,Lexical Decision Making,2024.1.5,None,2024-11-23 09h55.26.863514 +0530,
b o t t l e,1.0,neutral,m,2,52,252,58,223.4939192,,,,,,,,,223.48008099999998,223.4939192,223.4939192,224.00899369999996,224.02736239999996,m,0.5225812000001042,None,m,m,,,,008,001,2024-11-23_09h55.16.816,Lexical Decision Making,2024.1.5,None,2024-11-23 09h55.26.863514 +0530,
c o m f o r t,1.0,positive,m,2,53,253,59,224.04246789999996,,,,,,,,,224.0283774,224.04246789999996,224.04246789999996,224.55772050000002,224.54247449999997,m,0.4851341000000957,None,m,m,,,,008,001,2024-11-23_09h55.16.816,Lexical Decision Making,2024.1.5,None,2024-11-23 09h55.26.863514 +0530,
v i c t o r y,1.0,positive,m,2,54,254,25,224.55772050000002,,,,,,,,,224.54333679999996,224.55772050000002,224.55772050000002,225.07288699999998,225.2402189,m,0.6690088000000287,None,m,m,,,,008,001,2024-11-23_09h55.16.816,Lexical Decision Making,2024.1.5,None,2024-11-23 09h55.26.863514 +0530,
l a w v e r,0.0,non-word,z,2,55,255,76,225.25567189999998,,,,,,,,,225.240842,225.25567189999998,225.25567189999998,225.77077839999998,225.78882249999998,z,0.5219285000000582,None,z,z,,,,008,001,2024-11-23_09h55.16.816,Lexical Decision Making,2024.1.5,None,2024-11-23 09h55.26.863514 +0530,
z o m p r e,0.0,non-word,z,2,56,256,73,225.80399370000004,,,,,,,,,225.7894915,225.80399370000004,225.80399370000004,,226.27102689999998,m,0.45465660000002117,None,m,z,,,,008,001,2024-11-23_09h55.16.816,Lexical Decision Making,2024.1.5,None,2024-11-23 09h55.26.863514 +0530,
c l o u d,1.0,neutral,m,2,57,257,94,226.28634879999998,,,,,,,,,226.27168610000007,226.28634879999998,226.28634879999998,226.80230239999997,227.0190293,m,0.718709600000011,None,m,m,,,,008,001,2024-11-23_09h55.16.816,Lexical Decision Making,2024.1.5,None,2024-11-23 09h55.26.863514 +0530,
w i n d o w,1.0,neutral,m,2,58,258,80,227.03474109999996,,,,,,,,,227.01977100000005,227.03474109999996,227.03474109999996,227.54973660000002,228.14934399999999,m,1.1063340000000608,None,m,m,,,,008,001,2024-11-23_09h55.16.816,Lexical Decision Making,2024.1.5,None,2024-11-23 09h55.26.863514 +0530,
s a d n e s s,1.0,negative,m,2,59,259,65,228.16461199999998,,,,,,,,,228.14986549999998,228.16461199999998,228.16461199999998,,228.63146290000003,m,0.45688989999996465,None,m,m,,,,008,001,2024-11-23_09h55.16.816,Lexical Decision Making,2024.1.5,None,2024-11-23 09h55.26.863514 +0530,
c a l e n d a r,1.0,neutral,m,2,60,260,86,228.64711849999998,,,,,,,,,228.631998,228.64711849999998,228.64711849999998,229.16163260000002,229.17970610000003,m,0.5164989999999534,None,m,m,,,,008,001,2024-11-23_09h55.16.816,Lexical Decision Making,2024.1.5,None,2024-11-23 09h55.26.863514 +0530,
f l o r t,0.0,non-word,z,2,61,261,11,229.19511389999997,,,,,,,,,229.18022850000006,229.19511389999997,229.19511389999997,229.71091919999998,229.94465329999997,z,0.7335176000000274,None,z,z,,,,008,001,2024-11-23_09h55.16.816,Lexical Decision Making,2024.1.5,None,2024-11-23 09h55.26.863514 +0530,
s a d n e s s,1.0,negative,m,2,62,262,88,229.95977820000002,,,,,,,,,229.94562690000004,229.95977820000002,229.95977820000002,,230.40970340000007,m,0.4437815999999657,None,m,m,,,,008,001,2024-11-23_09h55.16.816,Lexical Decision Making,2024.1.5,None,2024-11-23 09h55.26.863514 +0530,
h a p p y,1.0,positive,m,2,63,263,21,230.42511610000003,,,,,,,,,230.41022530000004,230.42511610000003,230.42511610000003,230.94067060000003,231.0084165,m,0.5678340999999136,None,m,m,,,,008,001,2024-11-23_09h55.16.816,Lexical Decision Making,2024.1.5,None,2024-11-23 09h55.26.863514 +0530,
m u r k l e,0.0,non-word,z,2,64,264,66,231.0234731,,,,,,,,,231.00893890000003,231.0234731,231.0234731,231.5393423,231.5735007,z,0.5439982000000327,None,z,z,,,,008,001,2024-11-23_09h55.16.816,Lexical Decision Making,2024.1.5,None,2024-11-23 09h55.26.863514 +0530,
t a b l e,1.0,neutral,m,2,65,265,6,231.58875370000004,,,,,,,,,231.57423880000005,231.58875370000004,231.58875370000004,232.10447240000002,232.18869969999997,m,0.5921723000000156,None,m,m,,,,008,001,2024-11-23_09h55.16.816,Lexical Decision Making,2024.1.5,None,2024-11-23 09h55.26.863514 +0530,
l o s s,1.0,negative,m,2,66,266,29,232.20348940000002,,,,,,,,,232.18930670000003,232.20348940000002,232.20348940000002,,232.67023969999997,m,0.46122559999992063,None,m,m,,,,008,001,2024-11-23_09h55.16.816,Lexical Decision Making,2024.1.5,None,2024-11-23 09h55.26.863514 +0530,
p e n c i l,1.0,neutral,m,2,67,267,24,232.68589830000002,,,,,,,,,232.67078440000006,232.68589830000002,232.68589830000002,233.20073759999997,233.18531980000006,m,0.49023990000000595,None,m,m,,,,008,001,2024-11-23_09h55.16.816,Lexical Decision Making,2024.1.5,None,2024-11-23 09h55.26.863514 +0530,
q u i b l e n,0.0,non-word,z,2,68,268,91,233.20073759999997,,,,,,,,,233.1858712,233.20073759999997,233.20073759999997,233.6995126,233.8169211,z,0.6118844000000081,None,z,z,,,,008,001,2024-11-23_09h55.16.816,Lexical Decision Making,2024.1.5,None,2024-11-23 09h55.26.863514 +0530,
l a m p,1.0,neutral,m,2,69,269,18,233.8326232,,,,,,,,,233.81744640000005,233.8326232,233.8326232,234.3311488,234.33247680000005,m,0.4839967999999999,None,m,m,,,,008,001,2024-11-23_09h55.16.816,Lexical Decision Making,2024.1.5,None,2024-11-23 09h55.26.863514 +0530,
c e l e b r a t i o n,1.0,positive,m,2,70,270,75,234.34785630000005,,,,,,,,,234.3330199,234.34785630000005,234.34785630000005,,234.7983076,m,0.4486421999999948,None,m,m,,,,008,001,2024-11-23_09h55.16.816,Lexical Decision Making,2024.1.5,None,2024-11-23 09h55.26.863514 +0530,
j o y f u l,1.0,positive,m,2,71,271,19,234.81343710000004,,,,,,,,,234.79884750000002,234.81343710000004,234.81343710000004,235.32836049999997,235.47918569999996,m,0.6610653000000184,None,m,m,,,,008,001,2024-11-23_09h55.16.816,Lexical Decision Making,2024.1.5,None,2024-11-23 09h55.26.863514 +0530,
c h e e r f u l,1.0,positive,m,2,72,272,43,235.49469449999998,,,,,,,,,235.4801283,235.49469449999998,235.49469449999998,235.99337959999997,236.045143,m,0.5430982999999969,None,m,m,,,,008,001,2024-11-23_09h55.16.816,Lexical Decision Making,2024.1.5,None,2024-11-23 09h55.26.863514 +0530,
c l o c k,1.0,neutral,m,2,73,273,48,236.06013160000003,,,,,,,,,236.04569580000003,236.06013160000003,236.06013160000003,,236.5431858,m,0.46925340000007054,None,m,m,,,,008,001,2024-11-23_09h55.16.816,Lexical Decision Making,2024.1.5,None,2024-11-23 09h55.26.863514 +0530,
c l o c k,1.0,neutral,m,2,74,274,20,236.55901280000006,,,,,,,,,236.5439177,236.55901280000006,236.55901280000006,237.07387850000003,238.82028129999998,m,2.2446416000000227,None,m,m,,,,008,001,2024-11-23_09h55.16.816,Lexical Decision Making,2024.1.5,None,2024-11-23 09h55.26.863514 +0530,
m i s e r y,1.0,negative,m,2,75,275,34,238.83581429999998,,,,,,,,,238.8208093,238.83581429999998,238.83581429999998,239.35084790000002,239.53490900000003,m,0.6912932000000183,None,m,m,,,,008,001,2024-11-23_09h55.16.816,Lexical Decision Making,2024.1.5,None,2024-11-23 09h55.26.863514 +0530,
d e l i g h t,1.0,positive,m,2,76,276,39,239.55064099999998,,,,,,,,,239.53543559999997,239.55064099999998,239.55064099999998,240.0656823,240.41633689999998,m,0.8528059000000212,None,m,m,,,,008,001,2024-11-23_09h55.16.816,Lexical Decision Making,2024.1.5,None,2024-11-23 09h55.26.863514 +0530,
s m a g l e,0.0,non-word,z,2,77,277,53,240.43105570000006,,,,,,,,,240.4168785,240.43105570000006,240.43105570000006,240.94630560000002,241.03028250000006,z,0.5960211999999956,None,z,z,,,,008,001,2024-11-23_09h55.16.816,Lexical Decision Making,2024.1.5,None,2024-11-23 09h55.26.863514 +0530,
d r o n t,0.0,non-word,z,2,78,278,95,241.04619930000007,,,,,,,,,241.03082469999998,241.04619930000007,241.04619930000007,241.56122669999996,241.5954469,m,0.5377115000000003,None,m,z,,,,008,001,2024-11-23_09h55.16.816,Lexical Decision Making,2024.1.5,None,2024-11-23 09h55.26.863514 +0530,
e x c i t e d,1.0,positive,m,2,79,279,72,241.61164839999998,,,,,,,,,241.5960515,241.61164839999998,241.61164839999998,242.12625640000005,242.31179579999997,m,0.6858776999999918,None,m,m,,,,008,001,2024-11-23_09h55.16.816,Lexical Decision Making,2024.1.5,None,2024-11-23 09h55.26.863514 +0530,
g r i e f,1.0,negative,m,2,80,280,62,242.32584590000005,,,,,,,,,242.3124482,242.32584590000005,242.32584590000005,242.84109570000004,243.20816410000003,m,0.8718228000000181,None,m,m,,,,008,001,2024-11-23_09h55.16.816,Lexical Decision Making,2024.1.5,None,2024-11-23 09h55.26.863514 +0530,
c h i n d l e,0.0,non-word,z,2,81,281,8,243.22365180000003,,,,,,,,,243.2090473,243.22365180000003,243.22365180000003,243.73879660000006,243.75649119999997,z,0.5224269999999933,None,z,z,,,,008,001,2024-11-23_09h55.16.816,Lexical Decision Making,2024.1.5,None,2024-11-23 09h55.26.863514 +0530,
p e a c e,1.0,positive,m,2,82,282,97,243.771901,,,,,,,,,243.75701320000002,243.771901,243.771901,244.2705424,244.8206455,m,1.0401018999999678,None,m,m,,,,008,001,2024-11-23_09h55.16.816,Lexical Decision Making,2024.1.5,None,2024-11-23 09h55.26.863514 +0530,
c r i t i c i s m,1.0,negative,m,2,83,283,26,244.83615279999998,,,,,,,,,244.82119440000002,244.83615279999998,244.83615279999998,245.35095000000007,246.6819827,m,1.8367110000000366,None,m,m,,,,008,001,2024-11-23_09h55.16.816,Lexical Decision Making,2024.1.5,None,2024-11-23 09h55.26.863514 +0530,
z a r f e t,0.0,non-word,z,2,84,284,31,246.69777560000006,,,,,,,,,246.68251249999997,246.69777560000006,246.69777560000006,247.21264320000006,247.26351719999997,z,0.5592149999999947,None,z,z,,,,008,001,2024-11-23_09h55.16.816,Lexical Decision Making,2024.1.5,None,2024-11-23 09h55.26.863514 +0530,
b l o r p,0.0,non-word,z,2,85,285,84,247.27921610000004,,,,,,,,,247.2640435,247.27921610000004,247.27921610000004,247.79446860000002,247.84561379999997,z,0.5521479000000227,None,z,z,,,,008,001,2024-11-23_09h55.16.816,Lexical Decision Making,2024.1.5,None,2024-11-23 09h55.26.863514 +0530,
t r e n k,0.0,non-word,z,2,86,286,57,247.86065560000003,,,,,,,,,247.8461411,247.86065560000003,247.86065560000003,248.35940539999996,249.49102069999998,z,1.628061300000013,None,z,z,,,,008,001,2024-11-23_09h55.16.816,Lexical Decision Making,2024.1.5,None,2024-11-23 09h55.26.863514 +0530,
s m o r n,0.0,non-word,z,2,87,287,51,249.50625600000006,,,,,,,,,249.49157740000004,249.50625600000006,249.50625600000006,,249.97323339999997,z,0.4564543000000185,None,z,z,,,,008,001,2024-11-23_09h55.16.816,Lexical Decision Making,2024.1.5,None,2024-11-23 09h55.26.863514 +0530,
c h a i r,1.0,neutral,m,2,88,288,7,249.98847530000006,,,,,,,,,249.97377380000006,249.98847530000006,249.98847530000006,250.5040191,250.57111290000006,m,0.5663949999999431,None,m,m,,,,008,001,2024-11-23_09h55.16.816,Lexical Decision Making,2024.1.5,None,2024-11-23 09h55.26.863514 +0530,
g r u f f i l,0.0,non-word,z,2,89,289,49,250.587112,,,,,,,,,250.57185380000004,250.587112,250.587112,251.1023164,251.15243760000004,m,0.5497327000000496,None,m,z,,,,008,001,2024-11-23_09h55.16.816,Lexical Decision Making,2024.1.5,None,2024-11-23 09h55.26.863514 +0530,
p l o r,0.0,non-word,z,2,90,290,52,251.16844470000007,,,,,,,,,251.15297620000007,251.16844470000007,251.16844470000007,251.68413479999998,251.75123490000004,m,0.5797228000000132,None,m,z,,,,008,001,2024-11-23_09h55.16.816,Lexical Decision Making,2024.1.5,None,2024-11-23 09h55.26.863514 +0530,
w i n d o w,1.0,neutral,m,2,91,291,68,251.76675990000007,,,,,,,,,251.75177860000002,251.76675990000007,251.76675990000007,252.265472,252.36650609999998,m,0.588251899999932,None,m,m,,,,008,001,2024-11-23_09h55.16.816,Lexical Decision Making,2024.1.5,None,2024-11-23 09h55.26.863514 +0530,
d r e n k,0.0,non-word,z,2,92,292,4,252.38185140000002,,,,,,,,,252.36702930000007,252.38185140000002,252.38185140000002,252.89761719999996,252.9984705,z,0.6083814999999504,None,z,z,,,,008,001,2024-11-23_09h55.16.816,Lexical Decision Making,2024.1.5,None,2024-11-23 09h55.26.863514 +0530,
s m o r n,0.0,non-word,z,2,93,293,14,253.0136845,,,,,,,,,252.99908320000003,253.0136845,253.0136845,253.52867759999998,253.5299567,z,0.5030924999999797,None,z,z,,,,008,001,2024-11-23_09h55.16.816,Lexical Decision Making,2024.1.5,None,2024-11-23 09h55.26.863514 +0530,
c r i o u s,0.0,non-word,z,2,94,294,99,253.54533340000006,,,,,,,,,253.53047910000004,253.54533340000006,253.54533340000006,254.06075760000004,254.19545239999997,z,0.6489866000000575,None,z,z,,,,008,001,2024-11-23_09h55.16.816,Lexical Decision Making,2024.1.5,None,2024-11-23 09h55.26.863514 +0530,
m e t r o,1.0,neutral,m,2,95,295,96,254.2099867,,,,,,,,,254.19598890000003,254.2099867,254.2099867,254.72567250000003,254.94278090000006,m,0.7175747999999658,None,m,m,,,,008,001,2024-11-23_09h55.16.816,Lexical Decision Making,2024.1.5,None,2024-11-23 09h55.26.863514 +0530,
l o m e b,0.0,non-word,z,2,96,296,90,254.9583306,,,,,,,,,254.94330640000004,254.9583306,254.9583306,255.47361240000004,256.7549224,z,1.7889984999999342,None,z,z,,,,008,001,2024-11-23_09h55.16.816,Lexical Decision Making,2024.1.5,None,2024-11-23 09h55.26.863514 +0530,
c a b l e,1.0,neutral,m,2,97,297,78,256.769612,,,,,,,,,256.75549789999997,256.769612,256.769612,257.28504090000007,257.98439,m,1.2041785000000118,None,m,m,,,,008,001,2024-11-23_09h55.16.816,Lexical Decision Making,2024.1.5,None,2024-11-23 09h55.26.863514 +0530,
g r i n d l e,0.0,non-word,z,2,98,298,54,258.0001342,,,,,,,,,257.9849119,258.0001342,258.0001342,258.5153079,258.898174,z,0.883088500000099,None,z,z,,,,008,001,2024-11-23_09h55.16.816,Lexical Decision Making,2024.1.5,None,2024-11-23 09h55.26.863514 +0530,
c a r p e t,1.0,neutral,m,2,99,299,85,258.91381859999996,,,,,,,,,258.8986977,258.91381859999996,258.91381859999996,259.42974680000003,259.99576930000006,m,1.0666975999999977,None,m,m,,,,008,001,2024-11-23_09h55.16.816,Lexical Decision Making,2024.1.5,None,2024-11-23 09h55.26.863514 +0530,
p l a n e t,1.0,neutral,m,3,0,300,47,260.01084870000005,,,,,,,,,259.99630240000005,260.01084870000005,260.01084870000005,260.51003700000007,261.2090778,m,1.1969761999999946,None,m,m,,,,008,001,2024-11-23_09h55.16.816,Lexical Decision Making,2024.1.5,None,2024-11-23 09h55.26.863514 +0530,
b o t t l e,1.0,neutral,m,3,1,301,58,261.2243673,,,,,,,,,261.20960770000005,261.2243673,261.2243673,261.73976550000003,262.72161280000006,m,1.4850253000000748,None,m,m,,,,008,001,2024-11-23_09h55.16.816,Lexical Decision Making,2024.1.5,None,2024-11-23 09h55.26.863514 +0530,
s m o r n,0.0,non-word,z,3,2,302,51,262.73743970000004,,,,,,,,,262.7221583,262.73743970000004,262.73743970000004,263.25202930000006,263.4524681,z,0.7114775000000009,None,z,z,,,,008,001,2024-11-23_09h55.16.816,Lexical Decision Making,2024.1.5,None,2024-11-23 09h55.26.863514 +0530,
m o u n t a i n,1.0,neutral,m,3,3,303,71,263.46818590000004,,,,,,,,,263.4530001,263.46818590000004,263.46818590000004,263.98361370000003,264.3837147,m,0.9131787000000031,None,m,m,,,,008,001,2024-11-23_09h55.16.816,Lexical Decision Making,2024.1.5,None,2024-11-23 09h55.26.863514 +0530,
d r i n t,0.0,non-word,z,3,4,304,36,264.39898050000005,,,,,,,,,264.3842524,264.39898050000005,264.39898050000005,264.91485800000004,265.0987687,z,0.697592200000031,None,z,z,,,,008,001,2024-11-23_09h55.16.816,Lexical Decision Making,2024.1.5,None,2024-11-23 09h55.26.863514 +0530,
c r i o u s,0.0,non-word,z,3,5,305,99,265.1140333,,,,,,,,,265.0992978,265.1140333,265.1140333,265.6291703,265.7630486,z,0.644663899999955,None,z,z,,,,008,001,2024-11-23_09h55.16.816,Lexical Decision Making,2024.1.5,None,2024-11-23 09h55.26.863514 +0530,
g r i e f,1.0,negative,m,3,6,306,62,265.7784761,,,,,,,,,265.76395510000003,265.7784761,265.7784761,266.2772329,266.4446503,m,0.6585757999999942,None,m,m,,,,008,001,2024-11-23_09h55.16.816,Lexical Decision Making,2024.1.5,None,2024-11-23 09h55.26.863514 +0530,
a n g e r,1.0,negative,m,3,7,307,44,266.4601342,,,,,,,,,266.4455426,266.4601342,266.4601342,266.97533219999997,267.0100375,m,0.5386407000000872,None,m,m,,,,008,001,2024-11-23_09h55.16.816,Lexical Decision Making,2024.1.5,None,2024-11-23 09h55.26.863514 +0530,
f l o r t,0.0,non-word,z,3,8,308,11,267.0250603,,,,,,,,,267.0105683,267.0250603,267.0250603,267.5406962,267.591423,z,0.5600895000000037,None,z,z,,,,008,001,2024-11-23_09h55.16.816,Lexical Decision Making,2024.1.5,None,2024-11-23 09h55.26.863514 +0530,
p e a c e,1.0,positive,m,3,9,309,89,267.60705150000007,,,,,,,,,267.5919532,267.60705150000007,267.60705150000007,268.12210310000006,268.35632200000003,m,0.7450049000000263,None,m,m,,,,008,001,2024-11-23_09h55.16.816,Lexical Decision Making,2024.1.5,None,2024-11-23 09h55.26.863514 +0530,
c r i t i c i s m,1.0,negative,m,3,10,310,26,268.3714779,,,,,,,,,268.35717330000006,268.3714779,268.3714779,268.8866499,268.9214262,m,0.5385876999999937,None,m,m,,,,008,001,2024-11-23_09h55.16.816,Lexical Decision Making,2024.1.5,None,2024-11-23 09h55.26.863514 +0530,
g r i e f,1.0,negative,m,3,11,311,50,268.9369387,,,,,,,,,268.9219728,268.9369387,268.9369387,,269.42010469999997,m,0.47138059999997495,None,m,m,,,,008,001,2024-11-23_09h55.16.816,Lexical Decision Making,2024.1.5,None,2024-11-23 09h55.26.863514 +0530,
p a i n,1.0,negative,m,3,12,312,83,269.43562979999996,,,,,,,,,269.4206396,269.43562979999996,269.43562979999996,269.95043430000004,269.95156679999997,m,0.5132672000000866,None,m,m,,,,008,001,2024-11-23_09h55.16.816,Lexical Decision Making,2024.1.5,None,2024-11-23 09h55.26.863514 +0530,
d r e n k,0.0,non-word,z,3,13,313,4,269.96682790000006,,,,,,,,,269.9520901,269.96682790000006,269.96682790000006,270.46575,270.5338641,z,0.5618368000000373,None,z,z,,,,008,001,2024-11-23_09h55.16.816,Lexical Decision Making,2024.1.5,None,2024-11-23 09h55.26.863514 +0530,
v i c t o r y,1.0,positive,m,3,14,314,25,270.5490841,,,,,,,,,270.53439199999997,270.5490841,270.5490841,271.06501040000006,271.7301934,m,1.1666849000000639,None,m,m,,,,008,001,2024-11-23_09h55.16.816,Lexical Decision Making,2024.1.5,None,2024-11-23 09h55.26.863514 +0530,
a p p l e,1.0,neutral,m,3,15,315,32,271.74540340000004,,,,,,,,,271.7308416,271.74540340000004,271.74540340000004,272.26110550000004,272.9936155,m,1.2462375000000065,None,m,m,,,,008,001,2024-11-23_09h55.16.816,Lexical Decision Making,2024.1.5,None,2024-11-23 09h55.26.863514 +0530,
e x c i t e d,1.0,positive,m,3,16,316,10,273.00890710000004,,,,,,,,,272.9941382,273.00890710000004,273.00890710000004,273.52475039999996,274.4395496,m,1.4148994999999331,None,m,m,,,,008,001,2024-11-23_09h55.16.816,Lexical Decision Making,2024.1.5,None,2024-11-23 09h55.26.863514 +0530,
w a r,1.0,negative,m,3,17,317,67,274.45502189999996,,,,,,,,,274.4400711,274.45502189999996,274.45502189999996,274.97009600000007,275.0209538,m,0.5536829999999782,None,m,m,,,,008,001,2024-11-23_09h55.16.816,Lexical Decision Making,2024.1.5,None,2024-11-23 09h55.26.863514 +0530,
s m i l e,1.0,positive,m,3,18,318,92,275.03657960000004,,,,,,,,,275.0214745,275.03657960000004,275.03657960000004,275.5520161,275.61959800000005,m,0.569975599999907,None,m,m,,,,008,001,2024-11-23_09h55.16.816,Lexical Decision Making,2024.1.5,None,2024-11-23 09h55.26.863514 +0530,
c a b l e,1.0,neutral,m,3,19,319,78,275.63465909999996,,,,,,,,,275.6201177,275.63465909999996,275.63465909999996,,276.1017116,m,0.46555510000007416,None,m,m,,,,008,001,2024-11-23_09h55.16.816,Lexical Decision Making,2024.1.5,None,2024-11-23 09h55.26.863514 +0530,
d r o n t,0.0,non-word,z,3,20,320,95,276.11709190000005,,,,,,,,,276.1022456,276.11709190000005,276.11709190000005,276.632728,276.7499164,z,0.6171100000000251,None,z,z,,,,008,001,2024-11-23_09h55.16.816,Lexical Decision Making,2024.1.5,None,2024-11-23 09h55.26.863514 +0530,
h a t e,1.0,negative,m,3,21,321,74,276.7652959,,,,,,,,,276.7505196,276.7652959,276.7652959,277.2818748,278.24648240000005,m,1.466803700000014,None,m,m,,,,008,001,2024-11-23_09h55.16.816,Lexical Decision Making,2024.1.5,None,2024-11-23 09h55.26.863514 +0530,
t r e n k,0.0,non-word,z,3,22,322,57,278.26117949999997,,,,,,,,,278.2470341,278.26117949999997,278.26117949999997,278.760194,278.91060450000003,z,0.642867899999942,None,z,z,,,,008,001,2024-11-23_09h55.16.816,Lexical Decision Making,2024.1.5,None,2024-11-23 09h55.26.863514 +0530,
b l o r p,0.0,non-word,z,3,23,323,5,278.9262299,,,,,,,,,278.9111559,278.9262299,278.9262299,279.44161980000007,279.4428452,z,0.5140536999999767,None,z,z,,,,008,001,2024-11-23_09h55.16.816,Lexical Decision Making,2024.1.5,None,2024-11-23 09h55.26.863514 +0530,
l a m p,1.0,neutral,m,3,24,324,42,279.45781619999997,,,,,,,,,279.44337120000006,279.45781619999997,279.45781619999997,279.97315080000004,280.2951807,m,0.8186035999999604,None,m,m,,,,008,001,2024-11-23_09h55.16.816,Lexical Decision Making,2024.1.5,None,2024-11-23 09h55.26.863514 +0530,
c e l e b r a t i o n,1.0,positive,m,3,25,325,75,280.30592989999997,,,,,,,,,280.2957187,280.30592989999997,280.30592989999997,280.8207471,280.88832340000005,m,0.5704114999999774,None,m,m,,,,008,001,2024-11-23_09h55.16.816,Lexical Decision Making,2024.1.5,None,2024-11-23 09h55.26.863514 +0530,
t a b l e,1.0,neutral,m,3,26,326,6,280.9043427,,,,,,,,,280.88885080000006,280.9043427,280.9043427,,281.3536869,m,0.44093820000000505,None,m,m,,,,008,001,2024-11-23_09h55.16.816,Lexical Decision Making,2024.1.5,None,2024-11-23 09h55.26.863514 +0530,
b r a s k,0.0,non-word,z,3,27,327,79,281.36968310000003,,,,,,,,,281.35442930000005,281.36968310000003,281.36968310000003,281.8846209,281.8692189,z,0.4975895000000037,None,z,z,,,,008,001,2024-11-23_09h55.16.816,Lexical Decision Making,2024.1.5,None,2024-11-23 09h55.26.863514 +0530,
m u r k l e,0.0,non-word,z,3,28,328,66,281.8846209,,,,,,,,,281.869743,281.8846209,281.8846209,282.39973679999997,282.4177897,m,0.5232309000000441,None,m,z,,,,008,001,2024-11-23_09h55.16.816,Lexical Decision Making,2024.1.5,None,2024-11-23 09h55.26.863514 +0530,
l o v e,1.0,positive,m,3,29,329,0,282.43378050000007,,,,,,,,,282.41832230000006,282.43378050000007,282.43378050000007,282.948609,283.1817014,m,0.7335118000000875,None,m,m,,,,008,001,2024-11-23_09h55.16.816,Lexical Decision Making,2024.1.5,None,2024-11-23 09h55.26.863514 +0530,
p e n c i l,1.0,neutral,m,3,30,330,24,283.1977208,,,,,,,,,283.18225,283.1977208,283.1977208,283.7130298,284.51192570000006,m,1.2992816000000857,None,m,m,,,,008,001,2024-11-23_09h55.16.816,Lexical Decision Making,2024.1.5,None,2024-11-23 09h55.26.863514 +0530,
d r i n t,0.0,non-word,z,3,31,331,23,284.52708390000004,,,,,,,,,284.51265159999997,284.52708390000004,284.52708390000004,285.0262198,285.0275717,z,0.49349339999992026,None,z,z,,,,008,001,2024-11-23_09h55.16.816,Lexical Decision Making,2024.1.5,None,2024-11-23 09h55.26.863514 +0530,
w i n d o w,1.0,neutral,m,3,32,332,80,285.04290370000007,,,,,,,,,285.0281988,285.04290370000007,285.04290370000007,285.55786200000006,285.7250142,m,0.6682266999999911,None,m,m,,,,008,001,2024-11-23_09h55.16.816,Lexical Decision Making,2024.1.5,None,2024-11-23 09h55.26.863514 +0530,
q u i b l e n,0.0,non-word,z,3,33,333,91,285.7410838,,,,,,,,,285.72554729999996,285.7410838,285.7410838,286.25609230000003,286.32373520000004,z,0.5717889000000014,None,z,z,,,,008,001,2024-11-23_09h55.16.816,Lexical Decision Making,2024.1.5,None,2024-11-23 09h55.26.863514 +0530,
v o b l i t,0.0,non-word,z,3,34,334,38,286.3394762,,,,,,,,,286.32428120000003,286.3394762,286.3394762,286.85453490000003,286.85598870000007,z,0.5006816999999728,None,z,z,,,,008,001,2024-11-23_09h55.16.816,Lexical Decision Making,2024.1.5,None,2024-11-23 09h55.26.863514 +0530,
c h i n d l e,0.0,non-word,z,3,35,335,8,286.8706123,,,,,,,,,286.85651809999996,286.8706123,286.8706123,287.38597039999996,287.3871154,z,0.5106931000000259,None,z,z,,,,008,001,2024-11-23_09h55.16.816,Lexical Decision Making,2024.1.5,None,2024-11-23 09h55.26.863514 +0530,
t r a i n,1.0,neutral,m,3,36,336,40,287.40261449999997,,,,,,,,,287.38765800000004,287.40261449999997,287.40261449999997,287.91795870000004,288.53385610000004,m,1.1141659999999547,None,m,m,,,,008,001,2024-11-23_09h55.16.816,Lexical Decision Making,2024.1.5,None,2024-11-23 09h55.26.863514 +0530,
m e t r o,1.0,neutral,m,3,37,337,96,288.54959249999996,,,,,,,,,288.53440860000006,288.54959249999996,288.54959249999996,289.0654557,289.18275380000006,m,0.627661699999976,None,m,m,,,,008,001,2024-11-23_09h55.16.816,Lexical Decision Making,2024.1.5,None,2024-11-23 09h55.26.863514 +0530,
e x c i t e d,1.0,positive,m,3,38,338,72,289.19818419999996,,,,,,,,,289.18328779999996,289.19818419999996,289.19818419999996,289.71342480000004,289.89761460000005,m,0.6971026999999594,None,m,m,,,,008,001,2024-11-23_09h55.16.816,Lexical Decision Making,2024.1.5,None,2024-11-23 09h55.26.863514 +0530,
p e a c e,1.0,positive,m,3,39,339,97,289.91251259999996,,,,,,,,,289.89815920000007,289.91251259999996,289.91251259999996,,290.3624186,m,0.43675819999998566,None,m,m,,,,008,001,2024-11-23_09h55.16.816,Lexical Decision Making,2024.1.5,None,2024-11-23 09h55.26.863514 +0530,
h o p e,1.0,positive,m,3,40,340,46,290.3840115,,,,,,,,,290.3629718,290.3840115,290.3840115,290.8939393,290.9448123,m,0.5466938999999229,None,m,m,,,,008,001,2024-11-23_09h55.16.816,Lexical Decision Making,2024.1.5,None,2024-11-23 09h55.26.863514 +0530,
c h a i r,1.0,neutral,m,3,41,341,7,290.9595618,,,,,,,,,290.9457515,290.9595618,290.9595618,291.4586813,291.44309230000005,m,0.46704399999998714,None,m,m,,,,008,001,2024-11-23_09h55.16.816,Lexical Decision Making,2024.1.5,None,2024-11-23 09h55.26.863514 +0530,
k i n d n e s s,1.0,positive,m,3,42,342,82,291.4586813,,,,,,,,,291.44361380000004,291.4586813,291.4586813,291.9738004,292.0409526,m,0.5683777000000418,None,m,m,,,,008,001,2024-11-23_09h55.16.816,Lexical Decision Making,2024.1.5,None,2024-11-23 09h55.26.863514 +0530,
s a d,1.0,negative,m,3,43,343,87,292.0571289,,,,,,,,,292.04147630000006,292.0571289,292.0571289,292.572075,292.5568159,m,0.48546380000004774,None,m,m,,,,008,001,2024-11-23_09h55.16.816,Lexical Decision Making,2024.1.5,None,2024-11-23 09h55.26.863514 +0530,
s m i l e,1.0,positive,m,3,44,344,55,292.572075,,,,,,,,,292.55757750000004,292.572075,292.572075,293.08712429999997,293.07203169999997,m,0.4947720999999774,None,m,m,,,,008,001,2024-11-23_09h55.16.816,Lexical Decision Making,2024.1.5,None,2024-11-23 09h55.26.863514 +0530,
w i n d o w,1.0,neutral,m,3,45,345,68,293.08712429999997,,,,,,,,,293.07255090000007,293.08712429999997,293.08712429999997,,293.55405690000003,m,0.4528605000000425,None,m,m,,,,008,001,2024-11-23_09h55.16.816,Lexical Decision Making,2024.1.5,None,2024-11-23 09h55.26.863514 +0530,
l o s s,1.0,negative,m,3,46,346,29,293.56946250000004,,,,,,,,,293.55457789999997,293.56946250000004,293.56946250000004,294.0846866,294.13549530000006,m,0.5554736999999932,None,m,m,,,,008,001,2024-11-23_09h55.16.816,Lexical Decision Making,2024.1.5,None,2024-11-23 09h55.26.863514 +0530,
v a b l i n,0.0,non-word,z,3,47,347,1,294.1515996,,,,,,,,,294.13601510000007,294.1515996,294.1515996,294.66615010000004,294.66744610000006,z,0.5086384999999609,None,z,z,,,,008,001,2024-11-23_09h55.16.816,Lexical Decision Making,2024.1.5,None,2024-11-23 09h55.26.863514 +0530,
a c h i e v e m e n t,1.0,positive,m,3,48,348,27,294.6836097,,,,,,,,,294.66798190000003,294.6836097,294.6836097,295.1986036,295.18240340000006,m,0.48245780000002014,None,m,m,,,,008,001,2024-11-23_09h55.16.816,Lexical Decision Making,2024.1.5,None,2024-11-23 09h55.26.863514 +0530,
h a p p y,1.0,positive,m,3,49,349,21,295.1986036,,,,,,,,,295.18313359999996,295.1986036,295.1986036,,295.68134620000006,m,0.47119279999992614,None,m,m,,,,008,001,2024-11-23_09h55.16.816,Lexical Decision Making,2024.1.5,None,2024-11-23 09h55.26.863514 +0530,
c l i b b e t,0.0,non-word,z,3,50,350,12,295.69715420000006,,,,,,,,,295.68187830000005,295.69715420000006,295.69715420000006,296.2126592,296.23016880000006,z,0.5273634000000129,None,z,z,,,,008,001,2024-11-23_09h55.16.816,Lexical Decision Making,2024.1.5,None,2024-11-23 09h55.26.863514 +0530,
l a w v e r,0.0,non-word,z,3,51,351,76,296.2457238,,,,,,,,,296.2306872,296.2457238,296.2457238,296.7605306,296.76169369999997,z,0.5057204999999385,None,z,z,,,,008,001,2024-11-23_09h55.16.816,Lexical Decision Making,2024.1.5,None,2024-11-23 09h55.26.863514 +0530,
g r i e f,1.0,negative,m,3,52,352,81,296.7776234,,,,,,,,,296.762536,296.7776234,296.7776234,297.2924913,297.4936012,m,0.7071803000000045,None,m,m,,,,008,001,2024-11-23_09h55.16.816,Lexical Decision Making,2024.1.5,None,2024-11-23 09h55.26.863514 +0530,
r e g r e t,1.0,negative,m,3,53,353,64,297.50881770000007,,,,,,,,,297.49413280000005,297.50881770000007,297.50881770000007,298.02390529999997,298.0412878,m,0.5201892000000043,None,m,m,,,,008,001,2024-11-23_09h55.16.816,Lexical Decision Making,2024.1.5,None,2024-11-23 09h55.26.863514 +0530,
s o r r o w,1.0,negative,m,3,54,354,33,298.0567815,,,,,,,,,298.0418106,298.0567815,298.0567815,298.5727105,298.5737347,m,0.5091342000000623,None,m,m,,,,008,001,2024-11-23_09h55.16.816,Lexical Decision Making,2024.1.5,None,2024-11-23 09h55.26.863514 +0530,
b l o r p,0.0,non-word,z,3,55,355,60,298.58912649999996,,,,,,,,,298.5742512,298.58912649999996,298.58912649999996,,299.0721561,z,0.4679480000000922,None,z,z,,,,008,001,2024-11-23_09h55.16.816,Lexical Decision Making,2024.1.5,None,2024-11-23 09h55.26.863514 +0530,
