delay,freq,condition,trials.thisRepN,trials.thisTrialN,trials.thisN,trials.thisIndex,thisRow.t,notes,trial.started,polygon.started,polygon_2.started,key_resp.started,polygon.stopped,trial.stopped,key_resp.keys,key_resp.rt,key_resp.duration,beep.started,sound_1.started,sound_1.stopped,beep.stopped,response.started,text.started,textbox.started,button.started,response.stopped,textbox.text,button.numClicks,button.timesOn,button.timesOff,participant,session,date,expName,psychopyVersion,frameRate,expStart,
0.4,400.0,unexp,0,0,0,1,0.027827200014144182,,0.016462799976579845,0.027827200014144182,1.0085613999981433,1.0085613999981433,1.0417009000084363,1.0622430000221357,space,0.04838569997809827,None,1.063114000018686,1.4745052666442158,1.790887199982535,1.7750078000244685,1.7750411999877542,1.790887199982535,1.790887199982535,1.790887199982535,5.78080469998531,200,1,[4.003868100000545],[4.003882099990733],060059,001,2024-11-14_21h58.12.486,intentional binding (1),2024.1.5,None,2024-11-14 21h58.17.313437 +0530,
0.1,400.0,unexp,0,1,1,0,5.796614599996246,,5.781913799990434,5.796614599996246,6.79343429999426,6.79343429999426,6.810010800021701,7.7417839000117965,space,0.9395003999816254,None,7.742178799991962,7.857028566653995,8.172227600007318,8.1586087999749,8.158630300022196,8.172227600007318,8.172227600007318,8.172227600007318,13.329478100000415,200,1,[5.1695753000094555],[5.169583200011402],060059,001,2024-11-14_21h58.12.486,intentional binding (1),2024.1.5,None,2024-11-14 21h58.17.313437 +0530,
0.4,1000.0,exp,0,2,2,4,13.341270199976861,,13.330269199970644,13.341270199976861,14.338749699993059,14.338749699993059,14.355021899973508,14.65553779999027,space,0.3007733999984339,None,14.656440299993847,15.069996066686388,15.386000700003933,15.36919170001056,15.369212499994319,15.386000700003933,15.386000700003933,15.386000700003933,18.781564500008244,300,1,[3.410953399958089],[3.410966199997347],060059,001,2024-11-14_21h58.12.486,intentional binding (1),2024.1.5,None,2024-11-14 21h58.17.313437 +0530,
0.7,400.0,unexp,0,3,3,2,18.79323850001674,,18.782694800000172,18.79323850001674,19.79062609997345,19.79062609997345,19.80722409998998,20.14039050001884,space,0.33556579996366054,None,20.140776599990204,20.85452956665928,21.169990599970333,21.15062690002378,21.15066250000382,21.169990599970333,21.169990599970333,21.169990599970333,25.881319699983578,700,1,[4.7285928999772295],[4.728607100027148],060059,001,2024-11-14_21h58.12.486,intentional binding (1),2024.1.5,None,2024-11-14 21h58.17.313437 +0530,
0.1,1000.0,exp,0,4,4,6,25.891359000001103,,25.882265100022778,25.891359000001103,26.888300599996,26.888300599996,26.904903099988587,29.632195800018962,space,2.727940399956424,None,29.632867400010582,29.747728666643766,30.063349000003655,30.048025199968833,30.04805410001427,30.063349000003655,30.063349000003655,30.063349000003655,34.53909839998232,200,1,[4.4895474999793805],[4.489555099979043],060059,001,2024-11-14_21h58.12.486,intentional binding (1),2024.1.5,None,2024-11-14 21h58.17.313437 +0530,
0.1,1000.0,exp,0,5,5,3,34.55104260001099,,34.53969619999407,34.55104260001099,35.54851990001043,35.54851990001043,35.56498329999158,37.7100246999762,space,2.1470903999870643,None,37.71059759997297,37.825409566638214,38.14122220000718,38.1213146999944,38.1213516999851,38.14122220000718,38.14122220000718,38.14122220000718,40.31929959997069,300,1,[2.1959007999976166],[2.1959123000269756],060059,001,2024-11-14_21h58.12.486,intentional binding (1),2024.1.5,None,2024-11-14 21h58.17.313437 +0530,
0.7,1000.0,exp,0,6,6,8,40.33422610000707,,40.320512100006454,40.33422610000707,41.33205760002602,41.33205760002602,41.348328899999615,42.678920899983495,space,1.3312237999634817,None,42.679656799999066,43.393172166663376,43.70848189998651,43.689700499991886,43.6897354000248,43.70848189998651,43.70848189998651,43.70848189998651,46.123162399977446,200,1,[2.43155520001892],[2.431562200014014],060059,001,2024-11-14_21h58.12.486,intentional binding (1),2024.1.5,None,2024-11-14 21h58.17.313437 +0530,
0.4,1000.0,exp,0,7,7,10,46.13493569998536,,46.123825400019996,46.13493569998536,47.132511399977375,47.132511399977375,47.14958480000496,47.64972679998027,space,0.5159878999693319,None,47.65058149996912,48.06391406665013,48.378607199992985,48.36117549997289,48.361199099977966,48.378607199992985,48.378607199992985,48.378607199992985,49.8137080000015,400,1,[1.4512832000036724],[1.451290600001812],060059,001,2024-11-14_21h58.12.486,intentional binding (1),2024.1.5,None,2024-11-14 21h58.17.313437 +0530,
0.7,1000.0,exp,0,8,8,11,49.82489330001408,,49.8147772999946,49.82489330001408,50.822323100001086,50.822323100001086,50.83936220000032,53.4495229999884,space,2.6150050000287592,None,53.45034759998089,54.16360776668104,54.47930800000904,54.46280829998432,54.46283019997645,54.47930800000904,54.47930800000904,54.47930800000904,55.90980580000905,700,1,[1.4457112000091001],[1.4457226000376977],060059,001,2024-11-14_21h58.12.486,intentional binding (1),2024.1.5,None,2024-11-14 21h58.17.313437 +0530,
0.7,1000.0,exp,0,9,9,5,55.925853899971116,,55.91041489999043,55.925853899971116,56.922535500023514,56.922535500023514,56.93932260002475,57.189766599971335,space,0.25247060001129285,None,57.19060580001678,57.90350916667764,58.2186640999862,58.20654340001056,58.206578899989836,58.2186640999862,58.2186640999862,58.2186640999862,61.31163780001225,300,1,[3.1029661999782547],[3.102977800008375],060059,001,2024-11-14_21h58.12.486,intentional binding (1),2024.1.5,None,2024-11-14 21h58.17.313437 +0530,
0.1,1000.0,exp,0,10,10,9,61.327173199970275,,61.312751699995715,61.327173199970275,62.32453899999382,62.32453899999382,62.34159219998401,62.6912016000133,space,0.36038720002397895,None,62.69203869998455,62.806856166691674,63.12294989998918,63.107487500004936,63.10750889999326,63.12294989998918,63.12294989998918,63.12294989998918,67.83165900001768,400,1,[4.722870600002352],[4.722886200004723],060059,001,2024-11-14_21h58.12.486,intentional binding (1),2024.1.5,None,2024-11-14 21h58.17.313437 +0530,
0.4,1000.0,exp,0,11,11,7,67.84252579999156,,67.83258300001035,67.84252579999156,68.84029409999494,68.84029409999494,68.85640230000718,69.33985059999395,space,0.49373729998478666,None,69.34066980000352,69.7542911666717,70.07007479999447,70.05708080000477,70.05710209999233,70.07007479999447,70.07007479999447,70.07007479999447,71.75402719998965,200,1,[1.6955366000183858],[1.695551200013142],060059,001,2024-11-14_21h58.12.486,intentional binding (1),2024.1.5,None,2024-11-14 21h58.17.313437 +0530,
0.4,400.0,unexp,1,0,12,1,71.76541360002011,,71.75483719998738,71.76541360002011,72.76257000002079,72.76257000002079,72.77961049997248,73.97674499999266,space,1.2127545999828726,None,73.9771277999971,74.39196376665883,74.70719380001538,74.69254989997717,74.69257199997082,74.70719380001538,74.70719380001538,74.70719380001538,76.02663129998837,700,1,[1.3327197000035085],[1.332728200010024],060059,001,2024-11-14_21h58.12.486,intentional binding (1),2024.1.5,None,2024-11-14 21h58.17.313437 +0530,
0.4,1000.0,exp,1,1,13,7,76.03703120001592,,76.02807629999006,76.03703120001592,77.03464550001081,77.03464550001081,77.05093540000962,77.99999709997792,space,0.9631201999727637,None,78.00071370002115,78.4138730666639,78.74602810002398,78.73018640000373,78.73020420002285,78.74602810002398,78.74602810002398,78.74602810002398,80.69146010000259,300,1,[1.9600568999885581],[1.9600622999714687],060059,001,2024-11-14_21h58.12.486,intentional binding (1),2024.1.5,None,2024-11-14 21h58.17.313437 +0530,
0.4,1000.0,exp,1,2,14,4,80.70770400000038,,80.69208060001256,80.70770400000038,81.70478939998429,81.70478939998429,81.72173519997159,81.92282380000688,space,0.20320969994645566,None,81.92330979998223,82.33662866667534,82.65244450001046,82.63650979998056,82.63654390000738,82.65244450001046,82.65244450001046,82.65244450001046,87.34476870001527,400,1,[4.706359900010284],[4.706374900008086],060059,001,2024-11-14_21h58.12.486,intentional binding (1),2024.1.5,None,2024-11-14 21h58.17.313437 +0530,
0.1,1000.0,exp,1,3,15,3,87.35576659999788,,87.3459057,87.35576659999788,88.3531427999842,88.3531427999842,88.36985580000328,88.8198045999743,space,0.4547004000050947,None,88.82042619999265,88.9352800666859,89.25058100000024,89.23712050000904,89.23713939997833,89.25058100000024,89.25058100000024,89.25058100000024,91.44673399999738,200,1,[2.208074599970132],[2.2080858999979682],060059,001,2024-11-14_21h58.12.486,intentional binding (1),2024.1.5,None,2024-11-14 21h58.17.313437 +0530,
0.1,1000.0,exp,1,4,16,6,91.46210890001385,,91.44769930001348,91.46210890001385,92.45897179999156,92.45897179999156,92.47545119997812,92.49354699999094,space,0.020669199991971254,None,92.4939364999882,92.60879196663542,92.92427199997474,92.90927130001364,92.90928889997303,92.92427199997474,92.92427199997474,92.92427199997474,95.11992520000786,200,1,[2.2093620999949053],[2.2093728000181727],060059,001,2024-11-14_21h58.12.486,intentional binding (1),2024.1.5,None,2024-11-14 21h58.17.313437 +0530,
0.1,400.0,unexp,1,5,17,0,95.13534290000098,,95.12072690000059,95.13534290000098,96.13244010001654,96.13244010001654,96.14919849997386,96.33302209997782,space,0.19702920003328472,None,96.33344100002432,96.44857036666168,96.76433689997066,96.7492510000011,96.74928330001421,96.76433689997066,96.76433689997066,96.76433689997066,102.53629820002243,400,1,[5.784825499984436],[5.784840799984522],060059,001,2024-11-14_21h58.12.486,intentional binding (1),2024.1.5,None,2024-11-14 21h58.17.313437 +0530,
0.1,1000.0,exp,1,6,18,9,102.54875850002281,,102.5375805000076,102.54875850002281,103.54569250001805,103.54569250001805,103.56218269997044,103.76313859998481,space,0.2080825999728404,None,103.76382079999894,103.87870926666461,104.19407259998843,104.181191199983,104.18122179998318,104.19407259998843,104.19407259998843,104.19407259998843,108.92055320000509,400,1,[4.7378544000093825],[4.737862500012852],060059,001,2024-11-14_21h58.12.486,intentional binding (1),2024.1.5,None,2024-11-14 21h58.17.313437 +0530,
0.7,1000.0,exp,1,7,19,8,108.93076529999962,,108.92184409999754,108.93076529999962,109.92866560001858,109.92866560001858,109.94498450000538,111.2094263000181,space,1.2785784999723546,None,111.20981909998227,111.92249746667609,112.23786120000295,112.22227269998984,112.22229499998502,112.23786120000295,112.23786120000295,112.23786120000295,113.67194839997683,700,1,[1.4483997999923304],[1.448408099997323],060059,001,2024-11-14_21h58.12.486,intentional binding (1),2024.1.5,None,2024-11-14 21h58.17.313437 +0530,
0.7,400.0,unexp,1,8,20,2,113.68363579997094,,113.67265419999603,113.68363579997094,114.68204980000155,114.68204980000155,114.6977804999915,115.08092300000135,space,0.3919700999977067,None,115.08130720001645,115.79515976668723,116.1104054999887,116.09459749999223,116.0946302000084,116.1104054999887,116.1104054999887,116.1104054999887,124.82396060001338,300,1,[8.72768549999455],[8.727693099994212],060059,001,2024-11-14_21h58.12.486,intentional binding (1),2024.1.5,None,2024-11-14 21h58.17.313437 +0530,
0.7,1000.0,exp,1,9,21,11,124.83686550002312,,124.82456069998443,124.83686550002312,125.83398509997642,125.83398509997642,125.85121789999539,126.00167660001898,space,0.16211110004223883,None,126.00205850001657,126.71543536667401,127.03095629997551,127.01851580000948,127.01854730001651,127.03095629997551,127.03095629997551,127.03095629997551,130.92159819998778,700,1,[3.901280299993232],[3.901296199997887],060059,001,2024-11-14_21h58.12.486,intentional binding (1),2024.1.5,None,2024-11-14 21h58.17.313437 +0530,
0.4,1000.0,exp,1,10,22,10,130.93671259999974,,130.9230015000212,130.93671259999974,131.9340948999743,131.9340948999743,131.9504468999803,132.2349291999708,space,0.28890769998542964,None,132.23545450001257,132.64882776665425,132.96546630002558,132.9478016999783,132.9478286000085,132.96546630002558,132.96546630002558,132.96546630002558,134.59882269997615,500,1,[1.649460699991323],[1.649470999953337],060059,001,2024-11-14_21h58.12.486,intentional binding (1),2024.1.5,None,2024-11-14 21h58.17.313437 +0530,
0.7,1000.0,exp,1,11,23,5,134.61011999996845,,134.60008160001598,134.61011999996845,135.6072607000242,135.6072607000242,135.62448950001271,136.55585529998643,space,0.9402122999890707,None,136.55636099999538,137.27031046664732,137.58542889996897,137.57010150002316,137.57012450002367,137.58542889996897,137.58542889996897,137.58542889996897,138.96654009999475,700,1,[1.3949770999606699],[1.394984599959571],060059,001,2024-11-14_21h58.12.486,intentional binding (1),2024.1.5,None,2024-11-14 21h58.17.313437 +0530,
0.4,400.0,unexp,2,0,24,1,138.98219670000253,,138.96750560001237,138.98219670000253,139.97926890000235,139.97926890000235,139.9958904000232,140.3630744999973,space,0.3720758000272326,None,140.36369430000195,140.77726836665923,141.09231679997174,141.07577100000344,141.0758683999884,141.09231679997174,141.09231679997174,141.09231679997174,146.53003510000417,400,1,[5.45254319999367],[5.452554900024552],060059,001,2024-11-14_21h58.12.486,intentional binding (1),2024.1.5,None,2024-11-14 21h58.17.313437 +0530,
0.1,1000.0,exp,2,1,25,3,146.54486179997912,,146.53106489998754,146.54486179997912,147.54222709999885,147.54222709999885,147.55865149997408,147.80986249999842,space,0.26653650001389906,None,147.81036649999442,147.92471066664828,148.25581300002523,148.22557790001156,148.22560100001283,148.25581300002523,148.25581300002523,148.25581300002523,150.09009469999,300,1,[1.8630686000105925],[1.8630794999771751],060059,001,2024-11-14_21h58.12.486,intentional binding (1),2024.1.5,None,2024-11-14 21h58.17.313437 +0530,
0.7,400.0,unexp,2,2,26,2,150.1018522999948,,150.0910664999974,150.1018522999948,151.09973860002356,151.09973860002356,151.1161353000207,151.34935859998222,space,0.24750180001137778,None,151.34986830002163,152.0635128666802,152.37884810002288,152.36394890001975,152.36397479998413,152.37884810002288,152.37884810002288,152.37884810002288,154.27403530001175,600,1,[1.9084810999920592],[1.9084894999978133],060059,001,2024-11-14_21h58.12.486,intentional binding (1),2024.1.5,None,2024-11-14 21h58.17.313437 +0530,
0.1,1000.0,exp,2,3,27,6,154.28964199998882,,154.27501199999824,154.28964199998882,155.2870179999736,155.2870179999736,155.3037971999729,155.50494339998113,space,0.20825520000653341,None,155.5054462000262,155.6199881666728,155.95184809999773,155.92492209997727,155.92494589998387,155.95184809999773,155.95184809999773,155.95184809999773,158.13487419998273,300,1,[2.2079154000384733],[2.207926300005056],060059,001,2024-11-14_21h58.12.486,intentional binding (1),2024.1.5,None,2024-11-14 21h58.17.313437 +0530,
0.1,400.0,unexp,2,4,28,0,158.14646169997286,,158.13591519999318,158.14646169997286,159.14379980001831,159.14379980001831,159.16050509997876,159.6764968999778,space,0.5252858999883756,None,159.67707739997422,159.79197356664034,160.12364860001253,160.09441040002275,160.09443749999627,160.12364860001253,160.12364860001253,160.12364860001253,162.47271040000487,300,1,[2.376235900039319],[2.376246400002856],060059,001,2024-11-14_21h58.12.486,intentional binding (1),2024.1.5,None,2024-11-14 21h58.17.313437 +0530,
0.4,1000.0,exp,2,5,29,10,162.48459230002481,,162.47383480001008,162.48459230002481,163.48240809998242,163.48240809998242,163.49875049997354,164.18138590001035,space,0.6913499000365846,None,164.18189820001135,164.59557976667227,164.91047150001395,164.89438910002355,164.8944238999975,164.91047150001395,164.91047150001395,164.91047150001395,168.20756100001745,400,1,[3.3115305000101216],[3.311546200013254],060059,001,2024-11-14_21h58.12.486,intentional binding (1),2024.1.5,None,2024-11-14 21h58.17.313437 +0530,
0.7,1000.0,exp,2,6,30,11,168.21916380000766,,168.20852059999015,168.21916380000766,169.21630129998084,169.21630129998084,169.2328378999955,169.533526299987,space,0.31392799998866394,None,169.5342717000167,170.24699476664344,170.56243629998062,170.5490821999847,170.54910750000272,170.56243629998062,170.56243629998062,170.56243629998062,172.0968330000178,700,1,[1.546191000030376],[1.5462019000551663],060059,001,2024-11-14_21h58.12.486,intentional binding (1),2024.1.5,None,2024-11-14 21h58.17.313437 +0530,
0.4,1000.0,exp,2,7,31,7,172.10740909999004,,172.0978110000142,172.10740909999004,173.10485910001444,173.10485910001444,173.12150529999053,173.42229040001985,space,0.3136938000097871,None,173.42280890000984,173.8363211666622,174.15215169999283,174.13192890002392,174.13195599999744,174.15215169999283,174.15215169999283,174.15215169999283,179.40619609999703,300,1,[5.272751500015147],[5.272760599968024],060059,001,2024-11-14_21h58.12.486,intentional binding (1),2024.1.5,None,2024-11-14 21h58.17.313437 +0530,
0.7,1000.0,exp,2,8,32,5,179.42175869998755,,179.40715649997583,179.42175869998755,180.41875120002078,180.41875120002078,180.43554939999012,180.83575139997993,space,0.4142524999915622,None,180.83626850001747,181.54949256667558,181.86437859997386,181.8464348000125,181.8464771999861,181.86437859997386,181.86437859997386,181.86437859997386,189.5119911999791,400,1,[7.66256790002808],[7.662575400026981],060059,001,2024-11-14_21h58.12.486,intentional binding (1),2024.1.5,None,2024-11-14 21h58.17.313437 +0530,
0.4,1000.0,exp,2,9,33,4,189.52748440002324,,189.51300649996847,189.52748440002324,190.52481739997165,190.52481739997165,190.54163509997306,190.8917595000239,space,0.35877250001067296,None,190.8922630000161,191.3059226666849,191.62179659999674,191.60627460002434,191.60629789996892,191.62179659999674,191.62179659999674,191.62179659999674,193.48692960001063,500,1,[1.8791674000094645],[1.879178100032732],060059,001,2024-11-14_21h58.12.486,intentional binding (1),2024.1.5,None,2024-11-14 21h58.17.313437 +0530,
0.7,1000.0,exp,2,10,34,8,193.49935589998495,,193.48789300001226,193.49935589998495,194.49721489998046,194.49721489998046,194.5132128999685,194.81379350001225,space,0.30187030002707615,None,194.81430879997788,195.52774956665624,195.8432904999936,195.82902710000053,195.82905749999918,195.8432904999936,195.8432904999936,195.8432904999936,198.00499769998714,500,1,[2.1740384999429807],[2.1740489999647252],060059,001,2024-11-14_21h58.12.486,intentional binding (1),2024.1.5,None,2024-11-14 21h58.17.313437 +0530,
0.1,1000.0,exp,2,11,35,9,198.02001580002252,,198.00603539997246,198.02001580002252,199.01768709998578,199.01768709998578,199.03413719998207,199.5510806000093,space,0.5198707000236027,None,199.55180419998942,199.66574636666726,199.9812351000146,199.96609220001847,199.96611869998742,199.9812351000146,199.9812351000146,199.9812351000146,201.76118209998822,200,1,[1.7933776000281796],[1.7933855000301264],060059,001,2024-11-14_21h58.12.486,intentional binding (1),2024.1.5,None,2024-11-14 21h58.17.313437 +0530,
0.1,400.0,unexp,3,0,36,0,201.777686299989,,201.76215670001693,201.777686299989,202.77496389998123,202.77496389998123,202.7911237999797,203.24079770001117,space,0.46268299996154383,None,203.24149530002614,203.35602326668257,203.6712116000126,203.65680970001267,203.6568362999824,203.6712116000126,203.6712116000126,203.6712116000126,207.2840775999939,400,1,[3.6257162000401877],[3.6257271000067703],060059,001,2024-11-14_21h58.12.486,intentional binding (1),2024.1.5,None,2024-11-14 21h58.17.313437 +0530,
0.4,1000.0,exp,3,1,37,4,207.29539189999923,,207.28547160001472,207.29539189999923,208.2930306000053,208.2930306000053,208.30955250002444,210.83690160000697,space,2.53164800000377,None,210.83740249997936,211.2511515666886,211.56680099997902,211.55024890002096,211.55027559999144,211.56680099997902,211.56680099997902,211.56680099997902,214.62675049999962,400,1,[3.074985600018408],[3.0749934000195935],060059,001,2024-11-14_21h58.12.486,intentional binding (1),2024.1.5,None,2024-11-14 21h58.17.313437 +0530,
0.7,400.0,unexp,3,2,38,2,214.64209089998621,,214.62775559996953,214.64209089998621,215.639666699979,215.639666699979,215.65614219999406,216.22250510001322,space,0.5747128000366502,None,216.22342300001765,216.93589806667686,217.25100170000223,217.23555199999828,217.23558600002434,217.25100170000223,217.25100170000223,217.25100170000223,219.44602239999222,100,1,[2.2089053000090644],[2.2089141000178643],060059,001,2024-11-14_21h58.12.486,intentional binding (1),2024.1.5,None,2024-11-14 21h58.17.313437 +0530,
0.7,1000.0,exp,3,3,39,5,219.4615266000037,,219.44699480000418,219.4615266000037,220.45876720000524,220.45876720000524,220.47576970001683,220.95855969999684,space,0.4827159999986179,None,220.95906650001416,221.6720079666741,221.98790319997352,221.9714281000197,221.9714546999894,221.98790319997352,221.98790319997352,221.98790319997352,225.39726409997093,300,1,[3.424219499982428],[3.424228399991989],060059,001,2024-11-14_21h58.12.486,intentional binding (1),2024.1.5,None,2024-11-14 21h58.17.313437 +0530,
0.4,400.0,unexp,3,4,40,1,225.4130583999795,,225.3982516999822,225.4130583999795,226.40991049999138,226.40991049999138,226.42657359997975,226.77732439996907,space,0.35660290002124384,None,226.77782560000196,227.191628966659,227.50684659997933,227.4920174999861,227.49204019998433,227.50684659997933,227.50684659997933,227.50684659997933,229.05552459997125,400,1,[1.5619056999566965],[1.5619167999830097],060059,001,2024-11-14_21h58.12.486,intentional binding (1),2024.1.5,None,2024-11-14 21h58.17.313437 +0530,
0.7,1000.0,exp,3,5,41,11,229.0687492999714,,229.05680209997809,229.0687492999714,230.0659188000136,230.0659188000136,230.0825582999969,230.56611989997327,space,0.48499939998146147,None,230.5666815000004,231.27958236664225,231.61177720001433,231.58234790002462,231.58237449999433,231.61177720001433,231.61177720001433,231.61177720001433,234.35625160002382,600,1,[2.772391600010451],[2.7724012000253424],060059,001,2024-11-14_21h58.12.486,intentional binding (1),2024.1.5,None,2024-11-14 21h58.17.313437 +0530,
0.4,1000.0,exp,3,6,42,10,234.37147120002192,,234.35737589997007,234.37147120002192,235.36868750001304,235.36868750001304,235.38521129998844,235.42012119997526,space,0.03992060001473874,None,235.4206230000127,235.83467886667157,236.16689049999695,236.13689720002003,236.13694080000278,236.16689049999695,236.16689049999695,236.16689049999695,238.6980694999802,500,1,[2.558965000032913],[2.55897549999645],060059,001,2024-11-14_21h58.12.486,intentional binding (1),2024.1.5,None,2024-11-14 21h58.17.313437 +0530,
0.1,1000.0,exp,3,7,43,3,238.7090827000211,,238.6990541999694,238.7090827000211,239.70632270001806,239.70632270001806,239.7227775999927,240.00656740000704,space,0.29598779999651015,None,240.0072855000035,240.12146046664955,240.45462670002598,240.42485080001643,240.4248769999831,240.45462670002598,240.45462670002598,240.45462670002598,244.92659240000648,200,1,[4.500162600015756],[4.500176600005943],060059,001,2024-11-14_21h58.12.486,intentional binding (1),2024.1.5,None,2024-11-14 21h58.17.313437 +0530,
0.1,1000.0,exp,3,8,44,6,244.9421051000245,,244.92754830000922,244.9421051000245,245.9394383999752,245.9394383999752,245.95587850001175,246.23954420001246,space,0.2925340000074357,None,246.24006580002606,246.35493646667263,246.6706916000112,246.65462300000945,246.65464929997688,246.6706916000112,246.6706916000112,246.6706916000112,248.06796150002629,100,1,[1.411847300012596],[1.4118556000175886],060059,001,2024-11-14_21h58.12.486,intentional binding (1),2024.1.5,None,2024-11-14 21h58.17.313437 +0530,
0.1,1000.0,exp,3,9,45,9,248.08363030001055,,248.06919860001653,248.08363030001055,249.08097820001421,249.08097820001421,249.09742180001922,249.31417560001137,space,0.23125620000064373,None,249.31469249998918,249.42981626664212,249.74557019997155,249.72623059997568,249.72625700000208,249.74557019997155,249.74557019997155,249.74557019997155,253.50747130002128,100,1,[3.7795868999673985],[3.779597599990666],060059,001,2024-11-14_21h58.12.486,intentional binding (1),2024.1.5,None,2024-11-14 21h58.17.313437 +0530,
0.7,1000.0,exp,3,10,46,8,253.51920360000804,,253.5084388999967,253.51920360000804,254.51644759997725,254.51644759997725,254.53329430002486,254.84994240000378,space,0.3304173999931663,None,254.85045039997203,255.56419106666388,255.87929080001777,255.86472900002263,255.86475359997712,255.87929080001777,255.87929080001777,255.87929080001777,257.8915922999731,500,1,[2.025347899994813],[2.0253554999944754],060059,001,2024-11-14_21h58.12.486,intentional binding (1),2024.1.5,None,2024-11-14 21h58.17.313437 +0530,
0.4,1000.0,exp,3,11,47,7,257.9070626000175,,257.8925636999775,257.9070626000175,258.9045615000068,258.9045615000068,258.9211319999886,259.12155310000526,space,0.20750660001067445,None,259.1220709999907,259.5359423666416,259.85171870002523,259.83826539997244,259.8382916999981,259.85171870002523,259.85171870002523,259.85171870002523,265.6367481999914,300,1,[5.796910300035961],[5.796918599982746],060059,001,2024-11-14_21h58.12.486,intentional binding (1),2024.1.5,None,2024-11-14 21h58.17.313437 +0530,
0.4,1000.0,exp,4,0,48,4,265.6521256999695,,265.63793849997455,265.6521256999695,266.64908339997055,266.64908339997055,266.6657779000234,266.70020249998197,space,0.04543629998806864,None,266.7007016999996,267.11487246666024,267.4308587000123,267.41557180002565,267.4156116999802,267.4308587000123,267.4308587000123,267.4308587000123,269.2974526999751,200,1,[1.8801714000292122],[1.8801845000125468],060059,001,2024-11-14_21h58.12.486,intentional binding (1),2024.1.5,None,2024-11-14 21h58.17.313437 +0530,
0.4,1000.0,exp,4,1,49,7,269.3094372000196,,269.2988951000152,269.3094372000196,270.30732329998864,270.30732329998864,270.3233106000116,271.07255550002446,space,0.7524027000181377,None,271.07307759998366,271.4866253666735,271.8021306999726,271.78471340000397,271.7847471999703,271.8021306999726,271.8021306999726,271.8021306999726,273.86421440000413,500,1,[2.0778926000348292],[2.0779010000405833],060059,001,2024-11-14_21h58.12.486,intentional binding (1),2024.1.5,None,2024-11-14 21h58.17.313437 +0530,
0.1,1000.0,exp,4,2,50,3,273.87952419999056,,273.8651843999978,273.87952419999056,274.87710510002216,274.87710510002216,274.89368249999825,275.2440142999985,space,0.358120399992913,None,275.2445298000239,275.3588217666877,275.67547319998266,275.6567944000126,275.6568219999899,275.67547319998266,275.67547319998266,275.67547319998266,279.6158019999857,200,1,[3.9574978000018746],[3.957510899985209],060059,001,2024-11-14_21h58.12.486,intentional binding (1),2024.1.5,None,2024-11-14 21h58.17.313437 +0530,
0.7,400.0,unexp,4,3,51,2,279.6318200000096,,279.6167571999831,279.6318200000096,280.6285830999841,280.6285830999841,280.64484620001167,281.11186150001595,space,0.4671344000380486,None,281.11237400001846,281.8251298666621,282.14022539998405,282.1207004999742,282.1207337999949,282.14022539998405,282.14022539998405,282.14022539998405,285.13779409998097,700,1,[3.0153001999715343],[3.015315299970098],060059,001,2024-11-14_21h58.12.486,intentional binding (1),2024.1.5,None,2024-11-14 21h58.17.313437 +0530,
0.1,1000.0,exp,4,4,52,9,285.1494271000265,,285.1387554000248,285.1494271000265,286.1466580000124,286.1466580000124,286.1634120999952,290.66848350001965,space,4.5112029000301845,None,290.66900200000964,290.7840731666695,291.0991483000107,291.08103599998867,291.0810631000204,291.0991483000107,291.0991483000107,291.0991483000107,293.6931323999888,400,1,[2.6105251000262797],[2.6105330000282265],060059,001,2024-11-14_21h58.12.486,intentional binding (1),2024.1.5,None,2024-11-14 21h58.17.313437 +0530,
0.7,1000.0,exp,4,5,53,5,293.70859230001224,,293.6941381000215,293.70859230001224,294.705887100019,294.705887100019,294.72259510000004,295.006248700025,space,0.2843548000091687,None,295.00682840001537,295.7194764666531,296.0357882999815,296.0194405000075,296.01946699997643,296.0357882999815,296.0357882999815,296.0357882999815,298.4641919999849,800,1,[2.443213199963793],[2.4432209999649785],060059,001,2024-11-14_21h58.12.486,intentional binding (1),2024.1.5,None,2024-11-14 21h58.17.313437 +0530,
0.7,1000.0,exp,4,6,54,11,298.4796048999997,,298.46520189999137,298.4796048999997,299.47749889997067,299.47749889997067,299.4934594000224,300.80797630001325,space,1.3182300999760628,None,300.8085928999935,301.52145746664996,301.8380042000208,301.82204399997136,301.82207120000385,301.8380042000208,301.8380042000208,301.8380042000208,305.86413830000674,300,1,[4.0403660999727435],[4.040376299992204],060059,001,2024-11-14_21h58.12.486,intentional binding (1),2024.1.5,None,2024-11-14 21h58.17.313437 +0530,
0.4,400.0,unexp,4,7,55,1,305.8761885999702,,305.8652283999836,305.8761885999702,306.8731745000114,306.8731745000114,306.88987299997825,307.37296990002505,space,0.49138660001335666,None,307.3734944000025,307.78739686665745,308.1083951999899,308.0833184000221,308.0833442999865,308.1083951999899,308.1083951999899,308.1083951999899,309.7713197999983,400,1,[1.6861501999665052],[1.686163900012616],060059,001,2024-11-14_21h58.12.486,intentional binding (1),2024.1.5,None,2024-11-14 21h58.17.313437 +0530,
0.1,1000.0,exp,4,8,56,6,309.78208039997844,,309.7722902999958,309.78208039997844,310.77942380000604,310.77942380000604,310.79597009997815,311.1296156999888,space,0.33895860001211986,None,311.1301233000122,311.24488316668817,311.56032839999534,311.5393693000078,311.53939479996916,311.56032839999534,311.56032839999534,311.56032839999534,318.8754625999718,200,1,[7.334382799977902],[7.334391799988225],060059,001,2024-11-14_21h58.12.486,intentional binding (1),2024.1.5,None,2024-11-14 21h58.17.313437 +0530,
0.4,1000.0,exp,4,9,57,10,318.8904739000136,,318.8769152999739,318.8904739000136,319.8879673000192,319.8879673000192,319.90515000000596,320.20463220000966,space,0.31441170000471175,None,320.2051495999913,320.61931716668573,320.9348496000166,320.919910800003,320.91994370002067,320.9348496000166,320.9348496000166,320.9348496000166,322.5518869999796,400,1,[1.6304704999784008],[1.630481400003191],060059,001,2024-11-14_21h58.12.486,intentional binding (1),2024.1.5,None,2024-11-14 21h58.17.313437 +0530,
0.1,400.0,unexp,4,10,58,0,322.5640194999869,,322.5529516999959,322.5640194999869,323.5619944999926,323.5619944999926,323.5775722999824,323.8619802999892,space,0.28997400001389906,None,323.8629564999719,323.9768408666753,324.2924806000083,324.2772227000096,324.2772521000006,324.2924806000083,324.2924806000083,324.2924806000083,326.57059620000655,300,1,[2.2918766000075266],[2.2918843000079505],060059,001,2024-11-14_21h58.12.486,intentional binding (1),2024.1.5,None,2024-11-14 21h58.17.313437 +0530,
0.7,1000.0,exp,4,11,59,8,326.58618009998463,,326.5715810999973,326.58618009998463,327.5842166999937,327.5842166999937,327.6001874000067,327.9334480999969,space,0.33686360000865534,None,327.9339491999708,328.64724786667307,328.96250859997235,328.9474460000056,328.9474725999753,328.96250859997235,328.96250859997235,328.96250859997235,331.3268087999895,800,1,[2.377706600003876],[2.377717300027143],060059,001,2024-11-14_21h58.12.486,intentional binding (1),2024.1.5,None,2024-11-14 21h58.17.313437 +0530,
0.1,400.0,unexp,5,0,60,0,331.3391306999838,,331.3279029999976,331.3391306999838,332.3368298999849,332.3368298999849,332.3528529999894,332.83618450001813,space,0.48238669999409467,None,332.836699699983,332.9519057666805,333.2678726000013,333.25232839997625,333.25235349999275,333.2678726000013,333.2678726000013,333.2678726000013,335.0846175000188,400,1,[1.8308172000106424],[1.830827700032387],060059,001,2024-11-14_21h58.12.486,intentional binding (1),2024.1.5,None,2024-11-14 21h58.17.313437 +0530,
0.4,1000.0,exp,5,1,61,4,335.09565329999896,,335.08564369997475,335.09565329999896,336.09315089997835,336.09315089997835,336.1101149999886,336.3266684000264,space,0.22767649998422712,None,336.3271678999881,336.7415938666711,337.0739097999758,337.04461619997164,337.0446413999889,337.0739097999758,337.0739097999758,337.0739097999758,340.3501203000196,500,1,[3.303954500006512],[3.3039692000020295],060059,001,2024-11-14_21h58.12.486,intentional binding (1),2024.1.5,None,2024-11-14 21h58.17.313437 +0530,
0.1,1000.0,exp,5,2,62,3,340.3655248999712,,340.35108430002583,340.3655248999712,341.36249560001306,341.36249560001306,341.37898500001756,342.9095204999903,space,1.5411050000111572,None,342.91002930002287,343.02484996663793,343.3400418999954,343.3260539000039,343.32608069997514,343.3400418999954,343.3400418999954,343.3400418999954,349.22573000000557,200,1,[5.897779399994761],[5.897792199975811],060059,001,2024-11-14_21h58.12.486,intentional binding (1),2024.1.5,None,2024-11-14 21h58.17.313437 +0530,
0.7,1000.0,exp,5,3,63,8,349.2408487999928,,349.2267028000206,349.2408487999928,350.23827339999843,350.23827339999843,350.2547096000053,350.33961049997015,space,0.09960230003343895,None,350.3403060999699,351.0527394666608,351.3682114999974,351.34722719999263,351.3472546999692,351.3682114999974,351.3682114999974,351.3682114999974,352.7651759000146,800,1,[1.4159644999890588],[1.4159793999860995],060059,001,2024-11-14_21h58.12.486,intentional binding (1),2024.1.5,None,2024-11-14 21h58.17.313437 +0530,
0.4,1000.0,exp,5,4,64,10,352.7806677999906,,352.76620539999567,352.7806677999906,353.77801369997906,353.77801369997906,353.79405919997953,354.17775600001914,space,0.38952660001814365,None,354.17825629998697,354.5930606666409,354.90775800001575,354.8889113999903,354.8889778999728,354.90775800001575,354.90775800001575,354.90775800001575,356.64458570000716,100,1,[1.7535681999870576],[1.753578900010325],060059,001,2024-11-14_21h58.12.486,intentional binding (1),2024.1.5,None,2024-11-14 21h58.17.313437 +0530,
0.4,400.0,unexp,5,5,65,1,356.65388050000183,,356.64584539999487,356.65388050000183,357.65114680002443,357.65114680002443,357.6677962000249,358.0347617000225,space,0.38226789998589084,None,358.03526350000175,358.44903896667915,358.7641291000182,358.7498637000099,358.74988989997655,358.7641291000182,358.7641291000182,358.7641291000182,360.8477679999778,300,1,[2.0962441000156105],[2.0962598000187427],060059,001,2024-11-14_21h58.12.486,intentional binding (1),2024.1.5,None,2024-11-14 21h58.17.313437 +0530,
0.7,1000.0,exp,5,6,66,11,360.8585092999856,,360.84899089997634,360.8585092999856,361.8559078000253,361.8559078000253,361.87210189999314,362.0729877999984,space,0.20528669998748228,None,362.07348620000994,362.7869030666809,363.11896870000055,363.1034587000031,363.1034798999899,363.11896870000055,363.11896870000055,363.11896870000055,364.703847799974,400,1,[1.5987449999665841],[1.5987593999598175],060059,001,2024-11-14_21h58.12.486,intentional binding (1),2024.1.5,None,2024-11-14 21h58.17.313437 +0530,
0.1,1000.0,exp,5,7,67,6,364.71532070002286,,364.7050385000184,364.71532070002286,365.712653399969,365.712653399969,365.729142999975,365.79676150000887,space,0.07342100003734231,None,365.7972739000106,365.9120102666823,366.22685839998303,366.2124697000254,366.2124967999989,366.22685839998303,366.22685839998303,366.22685839998303,368.4934871000005,200,1,[2.2794350999756716],[2.2794497999711893],060059,001,2024-11-14_21h58.12.486,intentional binding (1),2024.1.5,None,2024-11-14 21h58.17.313437 +0530,
0.4,1000.0,exp,5,8,68,7,368.5043676000205,,368.49469490000047,368.5043676000205,369.5016658999957,369.5016658999957,369.5191644000006,369.7517611000221,space,0.23933969996869564,None,369.7522625999991,370.16628986667297,370.48281499999575,370.46183669997845,370.46187940001255,370.48281499999575,370.48281499999575,370.48281499999575,371.81693650002126,300,1,[1.353443400003016],[1.3534548000316136],060059,001,2024-11-14_21h58.12.486,intentional binding (1),2024.1.5,None,2024-11-14 21h58.17.313437 +0530,
0.7,400.0,unexp,5,9,69,2,371.8291266000015,,371.8179104999872,371.8291266000015,372.8263771000202,372.8263771000202,372.84314309997717,373.2759644999751,space,0.4450183000299148,None,373.2765050000162,373.9897263666537,374.30538949999027,374.2911325999885,374.29116040002555,374.30538949999027,374.30538949999027,374.30538949999027,376.0221242000116,700,1,[1.7289935000007972],[1.7290049999719486],060059,001,2024-11-14_21h58.12.486,intentional binding (1),2024.1.5,None,2024-11-14 21h58.17.313437 +0530,
0.7,1000.0,exp,5,10,70,5,376.0342090000049,,376.0232701000059,376.0342090000049,377.0319768000045,377.0319768000045,377.04806599998847,377.2661143000005,space,0.23259809997398406,None,377.2666814000113,377.9790674666913,378.2943580999854,378.28045119997114,378.2804778999998,378.2943580999854,378.2943580999854,378.2943580999854,379.7257085000165,400,1,[1.4437087999540381],[1.4437188999727368],060059,001,2024-11-14_21h58.12.486,intentional binding (1),2024.1.5,None,2024-11-14 21h58.17.313437 +0530,
0.1,1000.0,exp,5,11,71,9,379.74089890002506,,379.7267310000025,379.74089890002506,380.73820500000147,380.73820500000147,380.75491750001675,380.95527929998934,space,0.20711330004269257,None,380.9557881000219,381.0708094666518,381.40282070002286,381.37394919997314,381.3739783000201,381.40282070002286,381.40282070002286,381.40282070002286,383.96730070002377,500,1,[2.591753799992148],[2.5917681000428274],060059,001,2024-11-14_21h58.12.486,intentional binding (1),2024.1.5,None,2024-11-14 21h58.17.313437 +0530,
0.7,400.0,unexp,6,0,72,2,383.9794055999955,,383.96826110000256,383.9794055999955,384.97694189997856,384.97694189997856,384.993041299982,385.0273776000249,space,0.040035000012721866,None,385.02788830001373,385.74099766667155,386.0563133999822,386.03529009997146,386.0353158999933,386.0563133999822,386.0563133999822,386.0563133999822,392.47808749997057,800,1,[6.441174099978525],[6.4411853000056],060059,001,2024-11-14_21h58.12.486,intentional binding (1),2024.1.5,None,2024-11-14 21h58.17.313437 +0530,
0.4,1000.0,exp,6,1,73,10,392.4893210000009,,392.4792811999796,392.4893210000009,393.4868263999815,393.4868263999815,393.5036240000045,399.5379757999908,space,6.0500281999702565,None,399.53847789997235,399.95223446668047,400.26769730000524,400.2539601000026,400.2539939999697,400.26769730000524,400.26769730000524,400.26769730000524,404.29591809998965,300,1,[4.040296500024851],[4.040307199989911],060059,001,2024-11-14_21h58.12.486,intentional binding (1),2024.1.5,None,2024-11-14 21h58.17.313437 +0530,
0.4,1000.0,exp,6,2,74,7,404.307572300022,,404.2972488999949,404.307572300022,405.3043490999844,405.3043490999844,405.3209382999921,406.4022671999992,space,1.0836843000142835,None,406.40276839997387,406.8169189666553,407.13219580001896,407.1127237000037,407.11274969996884,407.13219580001896,407.13219580001896,407.13219580001896,408.3000398000004,200,1,[1.185684600030072],[1.185696000000462],060059,001,2024-11-14_21h58.12.486,intentional binding (1),2024.1.5,None,2024-11-14 21h58.17.313437 +0530,
0.1,1000.0,exp,6,3,75,3,408.31292210001266,,408.30135580000933,408.31292210001266,409.3103911000071,409.3103911000071,409.3266494999989,409.6272343000164,space,0.30383160000201315,None,409.62773770000786,409.7421503666594,410.0746073999908,410.04608729999745,410.04611469997326,410.0746073999908,410.0746073999908,410.0746073999908,411.97082310001133,400,1,[1.9231658999924548],[1.9231747000012547],060059,001,2024-11-14_21h58.12.486,intentional binding (1),2024.1.5,None,2024-11-14 21h58.17.313437 +0530,
0.7,1000.0,exp,6,4,76,5,411.98649639997166,,411.9719987999997,411.98649639997166,412.98346209997544,412.98346209997544,413.0006645999965,413.23390739999013,space,0.2444510000059381,None,413.2344236000208,413.9479400666353,414.27929699997185,414.250072899973,414.25009609997505,414.27929699997185,414.27929699997185,414.27929699997185,415.51124979997985,600,1,[1.2597343000234105],[1.2597429000306875],060059,001,2024-11-14_21h58.12.486,intentional binding (1),2024.1.5,None,2024-11-14 21h58.17.313437 +0530,
0.7,1000.0,exp,6,5,77,11,415.5266105000046,,415.5122138999868,415.5266105000046,416.52388960000826,416.52388960000826,416.54027479997603,416.74118219997035,space,0.20601810002699494,None,416.7417079000152,417.45458196668574,417.78740779997315,417.7579279000056,417.7579550999799,417.78740779997315,417.78740779997315,417.78740779997315,425.03891130001284,300 ,1,[7.279347800009418],[7.279358300031163],060059,001,2024-11-14_21h58.12.486,intentional binding (1),2024.1.5,None,2024-11-14 21h58.17.313437 +0530,
0.1,400.0,unexp,6,6,78,0,425.0506414999836,,425.04005200002575,425.0506414999836,426.04837879998377,426.04837879998377,426.06454789999407,426.2981518000015,space,0.23394330003065988,None,426.2986697999877,426.41368686664305,426.7448983999784,426.7191878000158,426.71921349997865,426.7448983999784,426.7448983999784,426.7448983999784,430.0374004999758,600,1,[3.3166751000098884],[3.316688399994746],060059,001,2024-11-14_21h58.12.486,intentional binding (1),2024.1.5,None,2024-11-14 21h58.17.313437 +0530,
0.4,400.0,unexp,6,7,79,1,430.05265009996947,,430.0383734999923,430.05265009996947,431.0503640000243,431.0503640000243,431.0666067000129,431.6658777000266,space,0.5985712000401691,None,431.6663817000226,432.0812909666604,432.4128318000003,432.3837047999841,432.3837291999953,432.4128318000003,432.4128318000003,432.4128318000003,436.62020389997633,600,1,[4.234927300014533],[4.234939499991015],060059,001,2024-11-14_21h58.12.486,intentional binding (1),2024.1.5,None,2024-11-14 21h58.17.313437 +0530,
0.4,1000.0,exp,6,8,80,4,436.6357611999847,,436.6212881000247,436.6357611999847,437.6327500999905,437.6327500999905,437.6496548000141,438.7806590999826,space,1.1332732000155374,None,438.78122060000896,439.1951762666615,439.52703729999484,439.49774999998044,439.4977748999954,439.52703729999484,439.52703729999484,439.52703729999484,441.3588946000091,300,1,[1.8596429999452084],[1.859653499966953],060059,001,2024-11-14_21h58.12.486,intentional binding (1),2024.1.5,None,2024-11-14 21h58.17.313437 +0530,
0.1,1000.0,exp,6,9,81,6,441.3718679000158,,441.35986799997045,441.3718679000158,442.36950109997997,442.36950109997997,442.3857293999754,442.48670810001204,space,0.10115460003726184,None,442.4872810000088,442.6021003666722,442.91843979997793,442.89910949999467,442.899135100015,442.91843979997793,442.91843979997793,442.91843979997793,445.8787536000018,200,1,[2.978208899963647],[2.9782184999785386],060059,001,2024-11-14_21h58.12.486,intentional binding (1),2024.1.5,None,2024-11-14 21h58.17.313437 +0530,
0.1,1000.0,exp,6,10,82,9,445.8940316999797,,445.8797098000068,445.8940316999797,446.8907775999978,446.8907775999978,446.9074256999884,447.3072647000081,space,0.4034240000182763,None,447.3077662999858,447.4228080666546,447.7380346999853,447.7206953999703,447.720724600018,447.7380346999853,447.7380346999853,447.7380346999853,448.86984709999524,100,1,[1.1476289000129327],[1.1476397000369616],060059,001,2024-11-14_21h58.12.486,intentional binding (1),2024.1.5,None,2024-11-14 21h58.17.313437 +0530,
0.7,1000.0,exp,6,11,83,8,448.8852453000145,,448.8708313999814,448.8852453000145,449.8825032999739,449.8825032999739,449.8990965000121,449.91692829999374,space,0.02492510003503412,None,449.91744130000006,450.6306013666365,450.9452413999825,450.93112919997657,450.931156000006,450.9452413999825,450.9452413999825,450.9452413999825,452.8584316999768,400,1,[1.9258565999916755],[1.925864899996668],060059,001,2024-11-14_21h58.12.486,intentional binding (1),2024.1.5,None,2024-11-14 21h58.17.313437 +0530,
0.1,1000.0,exp,7,0,84,9,452.87410000001546,,452.85939330002293,452.87410000001546,453.8710731000174,453.8710731000174,453.88757600000827,454.105000999989,space,0.22119309997651726,None,454.10554650000995,454.2202559666514,454.5358811999904,454.51532369997585,454.51535060000606,454.5358811999904,454.5358811999904,454.5358811999904,456.2357238000259,200,1,[1.7187096000416204],[1.7187201000051573],060059,001,2024-11-14_21h58.12.486,intentional binding (1),2024.1.5,None,2024-11-14 21h58.17.313437 +0530,
0.7,1000.0,exp,7,1,85,11,456.24814350000815,,456.2369206000003,456.24814350000815,457.24524530000053,457.24524530000053,457.2615786999813,457.46213840000564,space,0.20469099999172613,None,457.4626478999853,458.1765029666751,458.49143449997064,458.4764449999784,458.4764780999976,458.49143449997064,458.49143449997064,458.49143449997064,460.83648539998103,500,1,[2.35809860000154],[2.3581103999749757],060059,001,2024-11-14_21h58.12.486,intentional binding (1),2024.1.5,None,2024-11-14 21h58.17.313437 +0530,
0.4,1000.0,exp,7,2,86,10,460.8519187999773,,460.8374413999845,460.8519187999773,461.8492016000091,461.8492016000091,461.8659572000033,462.0662069999962,space,0.21092629997292534,None,462.0667974000098,462.48142896668674,462.7964897999773,462.78205859998707,462.7820841000066,462.7964897999773,462.7964897999773,462.7964897999773,464.3283715000143,300,1,[1.5446389999706298],[1.544653200020548],060059,001,2024-11-14_21h58.12.486,intentional binding (1),2024.1.5,None,2024-11-14 21h58.17.313437 +0530,
0.1,1000.0,exp,7,3,87,6,464.3434661999927,,464.3294830999803,464.3434661999927,465.3402680999716,465.3402680999716,465.3574839999783,465.78997699997853,space,0.4355253999819979,None,465.79047970002284,465.9052758666842,466.2201499000075,466.20578409999143,466.20581199997105,466.2201499000075,466.2201499000075,466.2201499000075,467.7843156000017,200,1,[1.5768302999786101],[1.5768382999813184],060059,001,2024-11-14_21h58.12.486,intentional binding (1),2024.1.5,None,2024-11-14 21h58.17.313437 +0530,
0.1,1000.0,exp,7,4,88,3,467.7998407999985,,467.7853125000256,467.7998407999985,468.79675610002596,468.79675610002596,468.8132412999985,469.0141811000067,space,0.20751119998749346,None,469.01467920001596,469.1295016666447,469.4453904000111,469.43032540002605,469.430347800022,469.4453904000111,469.4453904000111,469.4453904000111,472.3427195000113,200,1,[2.9108991000102833],[2.910909999976866],060059,001,2024-11-14_21h58.12.486,intentional binding (1),2024.1.5,None,2024-11-14 21h58.17.313437 +0530,
0.4,1000.0,exp,7,5,89,7,472.35512449999806,,472.34367329999804,472.35512449999806,473.35160009999527,473.35160009999527,473.3682570999954,473.96774260001257,space,0.601091299962718,None,473.9682433999842,474.38231676665987,474.7143196000252,474.68590270000277,474.68592959997477,474.7143196000252,474.7143196000252,474.7143196000252,476.0619390999782,200,1,[1.3742529000155628],[1.3742663000011817],060059,001,2024-11-14_21h58.12.486,intentional binding (1),2024.1.5,None,2024-11-14 21h58.17.313437 +0530,
0.4,400.0,unexp,7,6,90,1,476.07702710002195,,476.06295469996985,476.07702710002195,477.07425280002644,477.07425280002644,477.0909395000199,477.2917396000121,space,0.20561450003879145,None,477.29225709999446,477.7060177666756,478.02191989996936,478.00605789996916,478.00608099997044,478.02191989996936,478.02191989996936,478.02191989996936,480.9147070000181,100,1,[2.9070649999775924],[2.907073099981062],060059,001,2024-11-14_21h58.12.486,intentional binding (1),2024.1.5,None,2024-11-14 21h58.17.313437 +0530,
0.7,1000.0,exp,7,7,91,8,480.9304158000159,,480.9157107999781,480.9304158000159,481.92781959997956,481.92781959997956,481.9445148999803,482.5937559999875,space,0.6583211999968626,None,482.59428179997485,483.30737306666947,483.622969500022,483.6032538000145,483.6032798999804,483.622969500022,483.622969500022,483.622969500022,486.3210441999836,300,1,[2.7161063000094146],[2.7161211000056937],060059,001,2024-11-14_21h58.12.486,intentional binding (1),2024.1.5,None,2024-11-14 21h58.17.313437 +0530,
0.7,400.0,unexp,7,8,92,2,486.3329675999703,,486.3223947000224,486.3329675999703,487.3305168999941,487.3305168999941,487.34680880000815,488.01254650001647,space,0.6740369999897666,None,488.0130501000094,488.726377966643,489.0452201999724,489.021983499988,489.02200970001286,489.0452201999724,489.0452201999724,489.0452201999724,491.3236004000064,400,1,[2.3000219999812543],[2.300032500002999],060059,001,2024-11-14_21h58.12.486,intentional binding (1),2024.1.5,None,2024-11-14 21h58.17.313437 +0530,
0.7,1000.0,exp,7,9,93,5,491.3356054999749,,491.3247794000199,491.3356054999749,492.3324666999979,492.3324666999979,492.3498753000167,492.56672310002614,space,0.2277176000061445,None,492.5672324000043,493.28036756668394,493.59609499998624,493.58113409997895,493.5811562999734,493.59609499998624,493.59609499998624,493.59609499998624,496.0575327000115,600,1,[2.4749438000144437],[2.4749517000163905],060059,001,2024-11-14_21h58.12.486,intentional binding (1),2024.1.5,None,2024-11-14 21h58.17.313437 +0530,
0.4,1000.0,exp,7,10,94,4,496.0733525999822,,496.05849560000934,496.0733525999822,497.0703163999715,497.0703163999715,497.0871260999702,498.13536189997103,space,1.055690000008326,None,498.1360587999807,498.54978956666696,498.86429330002284,498.84613299998455,498.84616020001704,498.86429330002284,498.86429330002284,498.86429330002284,503.77293879998615,500,1,[4.9253412000252865],[4.9253518000477925],060059,001,2024-11-14_21h58.12.486,intentional binding (1),2024.1.5,None,2024-11-14 21h58.17.313437 +0530,
0.1,400.0,unexp,7,11,95,0,503.78519470000174,,503.77400139998645,503.78519470000174,504.78237590001663,504.78237590001663,504.7993309000158,505.56490340002347,space,0.7707420000224374,None,505.56568609998794,505.6803163666666,506.0123908999958,505.98313639999833,505.9831603000057,506.0123908999958,506.0123908999958,506.0123908999958,511.31849089998286,300,1,[5.333678699971642],[5.333693199965637],060059,001,2024-11-14_21h58.12.486,intentional binding (1),2024.1.5,None,2024-11-14 21h58.17.313437 +0530,
0.4,1000.0,exp,8,0,96,4,511.330672400014,,511.31962359999306,511.330672400014,512.3282423000201,512.3282423000201,512.3452818000223,512.5792775999871,space,0.24777869996614754,None,512.5798315000138,512.9932350666534,513.3089808999794,513.2938583000214,513.293880400015,513.3089808999794,513.3089808999794,513.3089808999794,515.0391981999855,400,1,[1.74380369996652],[1.7438120999722742],060059,001,2024-11-14_21h58.12.486,intentional binding (1),2024.1.5,None,2024-11-14 21h58.17.313437 +0530,
0.7,400.0,unexp,8,1,97,2,515.0546401999891,,515.0401774999918,515.0546401999891,516.0516601999989,516.0516601999989,516.0682784999954,516.352222800022,space,0.29727680003270507,None,516.3527259000111,517.0656945666453,517.3806859999895,517.3632300000172,517.3632590000052,517.3806859999895,517.3806859999895,517.3806859999895,518.8777724999818,500,1,[1.5128574999980628],[1.512866600009147],060059,001,2024-11-14_21h58.12.486,intentional binding (1),2024.1.5,None,2024-11-14 21h58.17.313437 +0530,
0.1,1000.0,exp,8,2,98,3,518.8932384999935,,518.8787314000074,518.8932384999935,519.8905942999991,519.8905942999991,519.9072642999818,520.2905142999953,space,0.3950351999956183,None,520.2910133000114,520.4058334666809,520.7222618000233,520.7017213000217,520.7017474999884,520.7222618000233,520.7222618000233,520.7222618000233,523.0870445999899,200,1,[2.3837111000320874],[2.3837215999956243],060059,001,2024-11-14_21h58.12.486,intentional binding (1),2024.1.5,None,2024-11-14 21h58.17.313437 +0530,
0.1,1000.0,exp,8,3,99,9,523.1023106999928,,523.0883460000041,523.1023106999928,524.0963164999848,524.0963164999848,524.1131025999784,524.6793553999742,space,0.5760305000003427,None,524.6799755999818,524.7945942666886,525.1267157000257,525.096490499971,525.096515399986,525.1267157000257,525.1267157000257,525.1267157000257,526.6773984999745,200,1,[1.5793182000052184],[1.5793289000284858],060059,001,2024-11-14_21h58.12.486,intentional binding (1),2024.1.5,None,2024-11-14 21h58.17.313437 +0530,
0.1,400.0,unexp,8,4,100,0,526.6894214000204,,526.6786819999688,526.6894214000204,527.6865585999913,527.6865585999913,527.7030532999779,528.1862841999973,space,0.49708119995193556,None,528.1867947999854,528.3015828666432,528.6336676999927,528.6057865999755,528.6058294000104,528.6336676999927,528.6336676999927,528.6336676999927,530.7500703000114,500,1,[2.142303599976003],[2.1423181000282057],060059,001,2024-11-14_21h58.12.486,intentional binding (1),2024.1.5,None,2024-11-14 21h58.17.313437 +0530,
0.1,1000.0,exp,8,5,101,6,530.7619536999846,,530.7510351000237,530.7619536999846,531.7588181999745,531.7588181999745,531.7755523999804,532.5575396000058,space,0.795535999990534,None,532.5580611000187,532.6731352666432,532.988749000011,532.9682932000142,532.9683356999885,532.988749000011,532.988749000011,532.988749000011,539.4889954000246,200,1,[6.518595400033519],[6.518608200014569],060059,001,2024-11-14_21h58.12.486,intentional binding (1),2024.1.5,None,2024-11-14 21h58.17.313437 +0530,
0.7,1000.0,exp,8,6,102,11,539.5047762999893,,539.4899560000049,539.5047762999893,540.5015891999938,540.5015891999938,540.5181408000062,540.6190271999803,space,0.10343159997137263,None,540.6195317999809,541.3326570666434,541.6476643999922,541.629896599974,541.6299226999981,541.6476643999922,541.6476643999922,541.6476643999922,545.7719741999754,800,1,[4.140617900004145],[4.1406269000144675],060059,001,2024-11-14_21h58.12.486,intentional binding (1),2024.1.5,None,2024-11-14 21h58.17.313437 +0530,
0.4,1000.0,exp,8,7,103,7,545.7875980000244,,545.7729389999877,545.7875980000244,546.7844299999997,546.7844299999997,546.8010754999705,547.0682174999965,space,0.27036329999100417,None,547.0687252000207,547.4827656666787,547.7981063000043,547.7848638999858,547.7848907000152,547.7981063000043,547.7981063000043,547.7981063000043,550.9567972000223,100,1,[3.1704012000118382],[3.1704096000175923],060059,001,2024-11-14_21h58.12.486,intentional binding (1),2024.1.5,None,2024-11-14 21h58.17.313437 +0530,
0.7,1000.0,exp,8,8,104,5,550.972305000003,,550.9577658000053,550.972305000003,551.9702194000129,551.9702194000129,551.9863614999922,552.2871956999879,space,0.3032975000096485,None,552.287916900008,553.0006724666493,553.316609499976,553.2988897999749,553.2989176000119,553.316609499976,553.316609499976,553.316609499976,554.8140775000211,900,1,[1.5133264999603853],[1.513334599963855],060059,001,2024-11-14_21h58.12.486,intentional binding (1),2024.1.5,None,2024-11-14 21h58.17.313437 +0530,
0.7,1000.0,exp,8,9,105,8,554.8290698999772,,554.8150654999772,554.8290698999772,555.8263587999973,555.8263587999973,555.8428696999908,556.5586587999715,space,0.7155089000007138,None,556.5593499999959,557.2723170666761,557.6048657000065,557.5764607000165,557.5764867999824,557.6048657000065,557.6048657000065,557.6048657000065,560.1653279999737,600,1,[2.5873921999591403],[2.5874016999732703],060059,001,2024-11-14_21h58.12.486,intentional binding (1),2024.1.5,None,2024-11-14 21h58.17.313437 +0530,
0.4,1000.0,exp,8,10,106,10,560.180703799997,,560.1663051000214,560.180703799997,561.177586500009,561.177586500009,561.1943942999933,561.2619653000147,space,0.0792916999780573,None,561.2628468999756,561.6764601666403,561.9922149999766,561.9708465000149,561.9708795999759,561.9922149999766,561.9922149999766,561.9922149999766,565.1022832000162,200,1,[3.1294637999963015],[3.129474899964407],060059,001,2024-11-14_21h58.12.486,intentional binding (1),2024.1.5,None,2024-11-14 21h58.17.313437 +0530,
0.4,400.0,unexp,8,11,107,1,565.1176560000167,,565.1032945999759,565.1176560000167,566.1148342000088,566.1148342000088,566.1317245999817,566.8812812999822,space,0.7501698000123724,None,566.881791999971,567.2952151666434,567.6102020000108,567.5928333000047,567.5928858999978,567.6102020000108,567.6102020000108,567.6102020000108,569.0076319000218,600,1,[1.412895799963735],[1.4129058999824338],060059,001,2024-11-14_21h58.12.486,intentional binding (1),2024.1.5,None,2024-11-14 21h58.17.313437 +0530,
0.1,400.0,unexp,9,0,108,0,569.0228352000122,,569.0085981999873,569.0228352000122,570.02028170001,570.02028170001,570.0369169000187,570.4034949999768,space,0.36756980000063777,None,570.4040963000152,570.5188291666602,570.8349512999994,570.8194637999986,570.8194893000182,570.8349512999994,570.8349512999994,570.8349512999994,575.2442698000232,300,1,[4.423134599986952],[4.423148899979424],060059,001,2024-11-14_21h58.12.486,intentional binding (1),2024.1.5,None,2024-11-14 21h58.17.313437 +0530,
0.4,1000.0,exp,9,1,109,10,575.2567359000095,,575.2453941999702,575.2567359000095,576.2540355999954,576.2540355999954,576.2705386999878,576.5539944000193,space,0.2950425000162795,None,576.5544979000115,576.9688015666363,577.284982800018,577.2694031000137,577.2694276000257,577.284982800018,577.284982800018,577.284982800018,579.1339535000152,400,1,[1.8628663999843411],[1.8628805999760516],060059,001,2024-11-14_21h58.12.486,intentional binding (1),2024.1.5,None,2024-11-14 21h58.17.313437 +0530,
0.7,1000.0,exp,9,2,110,5,579.1453708999907,,579.1351997000165,579.1453708999907,580.1426525000134,580.1426525000134,580.1590752999764,580.1769595000078,space,0.03068730002269149,None,580.1774595999741,580.8906223666893,581.2068839999847,581.1926881999825,581.1927143000066,581.2068839999847,581.2068839999847,581.2068839999847,582.5206495000166,700,1,[1.3264223000151105],[1.3264309000223875],060059,001,2024-11-14_21h58.12.486,intentional binding (1),2024.1.5,None,2024-11-14 21h58.17.313437 +0530,
0.7,1000.0,exp,9,3,111,8,582.5364438000252,,582.5216463999823,582.5364438000252,583.5336774999741,583.5336774999741,583.5500100000063,583.7505790999858,space,0.20049180003115907,None,583.7511404000106,584.4640432666677,584.7798320999718,584.76552299998,584.7655498000095,584.7798320999718,584.7798320999718,584.7798320999718,586.1783545999788,800,1,[1.4111097999848425],[1.4111211000126787],060059,001,2024-11-14_21h58.12.486,intentional binding (1),2024.1.5,None,2024-11-14 21h58.17.313437 +0530,
0.1,1000.0,exp,9,4,112,6,586.193254599988,,586.1794550999766,586.193254599988,587.1908754999749,587.1908754999749,587.2073291999986,587.4423212999827,space,0.23881229996914044,None,587.4428247999749,587.5568659666499,587.8722137999721,587.8588059999747,587.8588321999996,587.8722137999721,587.8722137999721,587.8722137999721,589.4713986999705,200,1,[1.6106763000134379],[1.6106866000336595],060059,001,2024-11-14_21h58.12.486,intentional binding (1),2024.1.5,None,2024-11-14 21h58.17.313437 +0530,
0.7,400.0,unexp,9,5,113,2,589.4845653999946,,589.4725630999892,589.4845653999946,590.4820325999754,590.4820325999754,590.4984695999883,590.7154953000136,space,0.21934990002773702,None,590.7160497999866,591.429313566656,591.7608246000018,591.7323653000058,591.7324009999866,591.7608246000018,591.7608246000018,591.7608246000018,596.4336061999784,600,1,[4.6992571000009775],[4.699265200004447],060059,001,2024-11-14_21h58.12.486,intentional binding (1),2024.1.5,None,2024-11-14 21h58.17.313437 +0530,
0.4,1000.0,exp,9,6,114,4,596.4493404999957,,596.4346130000195,596.4493404999957,597.4469017999945,597.4469017999945,597.4627305999747,599.7410731000127,space,2.2900874999468215,None,599.7415677999961,600.1551514666683,600.4703941000043,600.4561219000025,600.4561486999737,600.4703941000043,600.4703941000043,600.4703941000043,602.1709284000099,300,1,[1.7130226999870501],[1.7130343000171706],060059,001,2024-11-14_21h58.12.486,intentional binding (1),2024.1.5,None,2024-11-14 21h58.17.313437 +0530,
0.7,1000.0,exp,9,7,115,11,602.1831834000186,,602.171899900015,602.1831834000186,603.180428599997,603.180428599997,603.1969499000115,603.4475205999915,space,0.26438229996711016,None,603.448030599975,604.1610772666793,604.4768772000098,604.4615329999942,604.4615560999955,604.4768772000098,604.4768772000098,604.4768772000098,606.1922711000079,800,1,[1.729222399997525],[1.7292378999991342],060059,001,2024-11-14_21h58.12.486,intentional binding (1),2024.1.5,None,2024-11-14 21h58.17.313437 +0530,
0.1,1000.0,exp,9,8,116,3,606.2045848999987,,606.1932441000245,606.2045848999987,607.2016525000217,607.2016525000217,607.2185160000226,607.4695307000075,space,0.2666742999572307,None,607.4702399999951,607.5843231666406,607.9001991999685,607.8802744999994,607.8803163999692,607.9001991999685,607.9001991999685,607.9001991999685,609.9841876999708,200,1,[2.10189710004488],[2.101911000034306],060059,001,2024-11-14_21h58.12.486,intentional binding (1),2024.1.5,None,2024-11-14 21h58.17.313437 +0530,
0.4,1000.0,exp,9,9,117,7,609.9949657000252,,609.9851745999767,609.9949657000252,610.9922659000149,610.9922659000149,611.0088035999797,611.2265584999695,space,0.2331403000280261,None,611.2271270999918,611.6404786666428,611.9723040999961,611.946432399971,611.9464630999719,611.9723040999961,611.9723040999961,611.9723040999961,613.3694104999886,200,1,[1.421508500003256],[1.421516000002157],060059,001,2024-11-14_21h58.12.486,intentional binding (1),2024.1.5,None,2024-11-14 21h58.17.313437 +0530,
0.4,400.0,unexp,9,10,118,1,613.3852447000099,,613.3703754000016,613.3852447000099,614.3828007000266,614.3828007000266,614.3988619999727,614.649622500001,space,0.2511732999701053,None,614.6501231999719,615.0643405666381,615.3964353000047,615.3682738000061,615.3683014999842,615.3964353000047,615.3964353000047,615.3964353000047,616.9109072000138,400,1,[1.5410070000216365],[1.5410207000095397],060059,001,2024-11-14_21h58.12.486,intentional binding (1),2024.1.5,None,2024-11-14 21h58.17.313437 +0530,
0.1,1000.0,exp,9,11,119,9,616.9266607000027,,616.9120141000021,616.9266607000027,617.923287499987,617.923287499987,617.9402905000024,618.2237086999812,space,0.2843523999908939,None,618.2242106000194,618.3389064666737,618.6708180999849,618.6428625999833,618.642888900009,618.6708180999849,618.6708180999849,618.6708180999849,620.6043680000002,100,1,[1.9599145000101998],[1.9599289000034332],060059,001,2024-11-14_21h58.12.486,intentional binding (1),2024.1.5,None,2024-11-14 21h58.17.313437 +0530,
0.4,1000.0,exp,10,0,120,4,620.6160614999826,,620.6055199999828,620.6160614999826,621.6132360000047,621.6132360000047,621.6299718000228,621.7139225999708,space,0.08545760001288727,None,621.7145260000252,622.1285695666486,622.4439181999769,622.4294142000144,622.429441299988,622.4439181999769,622.4439181999769,622.4439181999769,623.8120584000135,200,1,[1.3811340000247583],[1.3811444999882951],060059,001,2024-11-14_21h58.12.486,intentional binding (1),2024.1.5,None,2024-11-14 21h58.17.313437 +0530,
0.1,1000.0,exp,10,1,121,9,623.8239706999739,,623.8130292000133,623.8239706999739,624.8214135000017,624.8214135000017,624.8378061000258,625.0222369999974,space,0.18603730003815144,None,625.0227320999838,625.1369075666919,625.4518035000074,625.4373000999913,625.4373271000222,625.4518035000074,625.4518035000074,625.4518035000074,628.2965145999915,300,1,[2.8576309999916703],[2.857640799949877],060059,001,2024-11-14_21h58.12.486,intentional binding (1),2024.1.5,None,2024-11-14 21h58.17.313437 +0530,
0.7,400.0,unexp,10,2,122,2,628.3115507999901,,628.2975027000066,628.3115507999901,629.3091743999976,629.3091743999976,629.325596700015,629.5924266999937,space,0.278453599952627,None,629.5929344000178,630.306119066667,630.6212492000195,630.6067571999738,630.6067926000105,630.6212492000195,630.6212492000195,630.6212492000195,632.6848576000193,500,1,[2.0762001000111923],[2.0762137999990955],060059,001,2024-11-14_21h58.12.486,intentional binding (1),2024.1.5,None,2024-11-14 21h58.17.313437 +0530,
0.7,1000.0,exp,10,3,123,8,632.6996678999858,,632.686073800025,632.6996678999858,633.6973111999687,633.6973111999687,633.7135282999952,633.9304461000138,space,0.2204976999782957,None,633.9309624999878,634.6442014666429,634.9595587999793,634.9416807999951,634.9417088999762,634.9595587999793,634.9595587999793,634.9595587999793,636.7435312999878,300,1,[1.7997351000085473],[1.7997493000002578],060059,001,2024-11-14_21h58.12.486,intentional binding (1),2024.1.5,None,2024-11-14 21h58.17.313437 +0530,
0.7,1000.0,exp,10,4,124,11,636.75541719998,,636.7446104999981,636.75541719998,637.7527626000228,637.7527626000228,637.7697836000007,638.0692525000195,space,0.31103459995938465,None,638.0697469000006,638.7832158666608,639.0989396999939,639.0836385000148,639.0836621000199,639.0989396999939,639.0989396999939,639.0989396999939,641.4637979000108,300,1,[2.378570700006094],[2.37858530000085],060059,001,2024-11-14_21h58.12.486,intentional binding (1),2024.1.5,None,2024-11-14 21h58.17.313437 +0530,
0.4,400.0,unexp,10,5,125,1,641.4755865000188,,641.4647408999735,641.4755865000188,642.4728891999694,642.4728891999694,642.489440299978,643.3048626999953,space,0.8277758000185713,None,643.305387099972,643.7194899666395,644.0346792999771,644.0188147000154,644.018840899982,644.0346792999771,644.0346792999771,644.0346792999771,646.2629990999703,400,1,[2.2426205999800004],[2.24262869998347],060059,001,2024-11-14_21h58.12.486,intentional binding (1),2024.1.5,None,2024-11-14 21h58.17.313437 +0530,
0.4,1000.0,exp,10,6,126,10,646.2786999000236,,646.2639601000119,646.2786999000236,647.275539299997,647.275539299997,647.2924580000108,648.0250444000121,space,0.7333920999662951,None,648.0255726000178,648.4395952666566,648.7552918000147,648.7401478000102,648.7401737999753,648.7552918000147,648.7552918000147,648.7552918000147,651.0044043000089,300,1,[2.2627764000208117],[2.2627886999980547],060059,001,2024-11-14_21h58.12.486,intentional binding (1),2024.1.5,None,2024-11-14 21h58.17.313437 +0530,
0.1,400.0,unexp,10,7,127,0,651.0162194999866,,651.0055618999759,651.0162194999866,652.014102199988,652.014102199988,652.0307505999808,652.2643921999843,space,0.23594129999401048,None,652.2649014000199,652.3796206666777,652.6940458000172,652.6800304999924,652.6800674999831,652.6940458000172,652.6940458000172,652.6940458000172,655.8381425000262,300,1,[3.156150599999819],[3.156162699975539],060059,001,2024-11-14_21h58.12.486,intentional binding (1),2024.1.5,None,2024-11-14 21h58.17.313437 +0530,
0.1,1000.0,exp,10,8,128,3,655.8536893000128,,655.8391318999929,655.8536893000128,656.8504852000042,656.8504852000042,656.8675790000125,657.2334597000154,space,0.3790218000067398,None,657.2339620999992,657.3492992666472,657.6812276999699,657.6520687000011,657.6520933000138,657.6812276999699,657.6812276999699,657.6812276999699,659.54817059997,100,1,[1.8944730999646708],[1.894483299984131],060059,001,2024-11-14_21h58.12.486,intentional binding (1),2024.1.5,None,2024-11-14 21h58.17.313437 +0530,
0.1,1000.0,exp,10,9,129,6,659.5595760999713,,659.5497474999866,659.5595760999713,660.5577013000147,660.5577013000147,660.5735642000218,660.6411343999789,space,0.0705234999768436,None,660.6420399000053,660.756228266637,661.0714589999989,661.0534908000263,661.0535168999922,661.0714589999989,661.0714589999989,661.0714589999989,665.4776667999686,100,1,[4.42251619999297],[4.422530600044411],060059,001,2024-11-14_21h58.12.486,intentional binding (1),2024.1.5,None,2024-11-14 21h58.17.313437 +0530,
0.4,1000.0,exp,10,10,130,7,665.4925204999745,,665.4788644000073,665.4925204999745,666.4898240999901,666.4898240999901,666.5064211999997,667.5715101999813,space,1.0751797999837436,None,667.5721985999844,667.9863342666688,668.3018481999752,668.2867166000069,668.2867399000097,668.3018481999752,668.3018481999752,668.3018481999752,669.7489836000022,100,1,[1.4602479999884963],[1.4602619999786839],060059,001,2024-11-14_21h58.12.486,intentional binding (1),2024.1.5,None,2024-11-14 21h58.17.313437 +0530,
0.7,1000.0,exp,10,11,131,5,669.7643070999766,,669.7500967999804,669.7643070999766,670.7617184999981,670.7617184999981,670.7783634000225,671.4611700000241,space,0.6848798000137322,None,671.4616805000114,672.1745030666391,672.4913468000013,672.4772421999951,672.4772691000253,672.4913468000013,672.4913468000013,672.4913468000013,673.8885709000169,200,1,[1.4098385000252165],[1.4098482000408694],060059,001,2024-11-14_21h58.12.486,intentional binding (1),2024.1.5,None,2024-11-14 21h58.17.313437 +0530,
0.4,1000.0,exp,11,0,132,10,673.9040743000223,,673.8895261000143,673.9040743000223,674.9009307000088,674.9009307000088,674.917624099995,675.7668151999824,space,0.8626596000394784,None,675.7673992000055,676.180699166671,676.4967131000012,676.4773935999838,676.4774344000034,676.4967131000012,676.4967131000012,676.4967131000012,686.6069554999704,150,1,[10.127934499992989],[10.127945000014734],060059,001,2024-11-14_21h58.12.486,intentional binding (1),2024.1.5,None,2024-11-14 21h58.17.313437 +0530,
0.7,1000.0,exp,11,1,133,8,686.6191292000003,,686.6082652999903,686.6191292000003,687.6161307999864,687.6161307999864,687.6328448000131,688.5814902000129,space,0.9489978000055999,None,688.5820670999819,689.29518676666,689.6109143000212,689.5974365000147,689.5974785999861,689.6109143000212,689.6109143000212,689.6109143000212,693.0187338999822,750,1,[3.4193153000087477],[3.419324400019832],060059,001,2024-11-14_21h58.12.486,intentional binding (1),2024.1.5,None,2024-11-14 21h58.17.313437 +0530,
0.4,1000.0,exp,11,2,134,7,693.0342418000218,,693.0197232000064,693.0342418000218,694.0313270000042,694.0313270000042,694.0479256000253,694.332081999979,space,0.290793499967549,None,694.3325773000252,694.746276666647,695.0626424999791,695.0483692999696,695.0483951999922,695.0626424999791,695.0626424999791,695.0626424999791,697.1288464000099,440,1,[2.0789778999751434],[2.0789886999991722],060059,001,2024-11-14_21h58.12.486,intentional binding (1),2024.1.5,None,2024-11-14 21h58.17.313437 +0530,
0.4,1000.0,exp,11,3,135,4,697.1406668999698,,697.1298591999803,697.1406668999698,698.1377099999809,698.1377099999809,698.1541338000097,698.3379280000227,space,0.19676120002986863,None,698.3384333999711,698.7526499666894,699.067577800015,699.0479164000135,699.0479501999798,699.067577800015,699.067577800015,699.067577800015,701.9619989999919,340,1,[2.9121159000205807],[2.9121261999825947],060059,001,2024-11-14_21h58.12.486,intentional binding (1),2024.1.5,None,2024-11-14 21h58.17.313437 +0530,
0.1,1000.0,exp,11,4,136,6,701.9773096999852,,701.9629522999749,701.9773096999852,702.9744890999864,702.9744890999864,702.9907756000175,703.2079707999947,space,0.22001900000032037,None,703.2084678999963,703.3232405666533,703.6381084999884,703.6239363999921,703.6239625000162,703.6381084999884,703.6381084999884,703.6381084999884,706.8856907999725,50,1,[3.2598757999949157],[3.2598868000204675],060059,001,2024-11-14_21h58.12.486,intentional binding (1),2024.1.5,None,2024-11-14 21h58.17.313437 +0530,
0.7,1000.0,exp,11,5,137,5,706.896823099989,,706.8867898000171,706.896823099989,707.8940616999753,707.8940616999753,707.9107614000095,707.946934800013,space,0.03495669999392703,None,707.9474313000101,708.6591771666465,708.9744655999821,708.9572055999888,708.9572330000228,708.9744655999821,708.9744655999821,708.9744655999821,712.7992456000065,230,1,[3.8404784000013024],[3.8404920999892056],060059,001,2024-11-14_21h58.12.486,intentional binding (1),2024.1.5,None,2024-11-14 21h58.17.313437 +0530,
0.1,1000.0,exp,11,6,138,3,712.8142215000116,,712.8002032000222,712.8142215000116,713.8114781000186,713.8114781000186,713.8279140000232,713.8961651999853,space,0.08306580001953989,None,713.8966756999725,714.0106960666637,714.3261276999838,714.3119641999947,714.3119908000226,714.3261276999838,714.3261276999838,714.3261276999838,717.5524102000054,60,1,[3.2389253999572247],[3.238932999956887],060059,001,2024-11-14_21h58.12.486,intentional binding (1),2024.1.5,None,2024-11-14 21h58.17.313437 +0530,
0.7,1000.0,exp,11,7,139,11,717.5678442000062,,717.5533880000003,717.5678442000062,718.5650692000054,718.5650692000054,718.5818982999772,720.9263540999964,space,2.346732899954077,None,720.92727320001,721.6399460666619,721.9550814999966,721.9385573000181,721.9385839999886,721.9550814999966,721.9550814999966,721.9550814999966,724.0103731999989,400,1,[2.0703139000106603],[2.0703246999764815],060059,001,2024-11-14_21h58.12.486,intentional binding (1),2024.1.5,None,2024-11-14 21h58.17.313437 +0530,
0.4,400.0,unexp,11,8,140,1,724.0167368000257,,724.0113347999868,724.0167368000257,725.014221200021,725.014221200021,725.0309583999915,725.2980714999721,space,0.27392259996850044,None,725.2985743000172,725.7121024666742,726.0277265000041,726.0131909999764,726.0132207999704,726.0277265000041,726.0277265000041,726.0277265000041,728.3424477999797,200,1,[2.3277373999590054],[2.3277495999936946],060059,001,2024-11-14_21h58.12.486,intentional binding (1),2024.1.5,None,2024-11-14 21h58.17.313437 +0530,
0.7,400.0,unexp,11,9,141,2,728.355404699978,,728.3434111999813,728.355404699978,729.352406400023,729.352406400023,729.3689079000033,729.719070399995,space,0.36191939999116585,None,729.7196849000175,730.4325299666418,730.7475619000033,730.7278070999891,730.7278340000194,730.7475619000033,730.7475619000033,730.7475619000033,735.4898881000117,340 ,1,[4.759844199987128],[4.759855599957518],060059,001,2024-11-14_21h58.12.486,intentional binding (1),2024.1.5,None,2024-11-14 21h58.17.313437 +0530,
0.1,1000.0,exp,11,10,142,9,735.5020795000019,,735.4908601000207,735.5020795000019,736.4997604999808,736.4997604999808,736.5159516999847,737.0166987999692,space,0.5098732000333257,None,737.0172060999903,737.1309412666635,737.4462333999691,737.4265896999859,737.4266312000109,737.4462333999691,737.4462333999691,737.4462333999691,739.1935323000071,200,1,[1.7650704000261612],[1.7650839000125416],060059,001,2024-11-14_21h58.12.486,intentional binding (1),2024.1.5,None,2024-11-14 21h58.17.313437 +0530,
0.1,400.0,unexp,11,11,143,0,739.2086233000155,,739.194818900025,739.2086233000155,740.2058872000198,740.2058872000198,740.2223195999977,740.4063052000129,space,0.19354770000791177,None,740.4068160000024,740.5217747666795,740.8364132000133,740.8187617000076,740.8188046999858,740.8364132000133,740.8364132000133,740.8364132000133,742.7991582999821,210,1,[1.978704100009054],[1.9787124000140466],060059,001,2024-11-14_21h58.12.486,intentional binding (1),2024.1.5,None,2024-11-14 21h58.17.313437 +0530,
0.4,1000.0,exp,12,0,144,10,742.8147366999765,,742.8001083999989,742.8147366999765,743.8122039000154,743.8122039000154,743.8283049000311,745.8577995000524,space,2.0305357999168336,None,745.8583057999494,746.2720573666777,746.5879308999865,746.5727081000223,746.5727322999737,746.5879308999865,746.5879308999865,746.5879308999865,748.2395269000554,120,1,[1.6649992999155074],[1.6650269000092521],060059,001,2024-11-14_21h58.12.486,intentional binding (1),2024.1.5,None,2024-11-14 21h58.17.313437 +0530,
0.7,1000.0,exp,12,1,145,8,748.250652000017,,748.2405942000332,748.250652000017,749.2477454000036,749.2477454000036,749.2644076999859,749.7974862000556,space,0.535695799975656,None,749.7982610000181,750.5110667666925,750.8274806000409,750.8135204000282,750.813547800004,750.8274806000409,750.8274806000409,750.8274806000409,754.0069716999424,220,1,[3.1912276000948623],[3.1912382000591606],060059,001,2024-11-14_21h58.12.486,intentional binding (1),2024.1.5,None,2024-11-14 21h58.17.313437 +0530,
0.4,1000.0,exp,12,2,146,7,754.0175558999763,,754.0079447000171,754.0175558999763,755.0147860999568,755.0147860999568,755.0317677000421,757.243362200039,space,2.2140480000525713,None,757.2442551999702,757.658183466647,757.9900663999724,757.9612177999807,757.9612425000523,757.9900663999724,757.9900663999724,757.9900663999724,759.0548992000404,400,1,[1.092149900039658],[1.0921591001097113],060059,001,2024-11-14_21h58.12.486,intentional binding (1),2024.1.5,None,2024-11-14 21h58.17.313437 +0530,
0.1,1000.0,exp,12,3,147,6,759.0707636000006,,759.0560691999854,759.0707636000006,760.0677416000399,760.0677416000399,760.0842912999797,760.9491369999596,space,0.8706112999934703,None,760.9498293999932,761.0653280667068,761.3808007999905,761.3625561999506,761.362583100039,761.3808007999905,761.3808007999905,761.3808007999905,762.7491463999613,100,1,[1.3848835000535473],[1.3848940000170842],060059,001,2024-11-14_21h58.12.486,intentional binding (1),2024.1.5,None,2024-11-14 21h58.17.313437 +0530,
0.4,400.0,unexp,12,4,148,1,762.7611940999632,,762.750237500004,762.7611940999632,763.7581822999637,763.7581822999637,763.774830499955,764.0085065999883,space,0.23892120004165918,None,764.0090118999942,764.42287756666,764.7386743999668,764.7225074000307,764.7225340000005,764.7386743999668,764.7386743999668,764.7386743999668,766.5049432999804,300,1,[1.7808756999438629],[1.7808867000276223],060059,001,2024-11-14_21h58.12.486,intentional binding (1),2024.1.5,None,2024-11-14 21h58.17.313437 +0530,
0.1,1000.0,exp,12,5,149,9,766.5173718999722,,766.5059060999774,766.5173718999722,767.5149013000191,767.5149013000191,767.5314405999961,767.5657232000376,space,0.04285260010510683,None,767.5663009000127,767.6809276666065,767.9959277000162,767.976143500011,767.976170799986,767.9959277000162,767.9959277000162,767.9959277000162,771.2423944000038,100,1,[3.2646533000515774],[3.2646636000135913],060059,001,2024-11-14_21h58.12.486,intentional binding (1),2024.1.5,None,2024-11-14 21h58.17.313437 +0530,
0.4,1000.0,exp,12,6,150,4,771.25417010003,,771.24338239996,771.25417010003,772.2515849000192,772.2515849000192,772.2684657000354,773.0341299999855,space,0.7672978000482544,None,773.0346288999426,773.44893336669,773.7647643000237,773.7492098999792,773.7492333000409,773.7647643000237,773.7647643000237,773.7647643000237,777.986510000017,450,1,[4.235856199986301],[4.235864200047217],060059,001,2024-11-14_21h58.12.486,intentional binding (1),2024.1.5,None,2024-11-14 21h58.17.313437 +0530,
0.7,1000.0,exp,12,7,151,5,778.0019039000035,,777.9874868000043,778.0019039000035,778.9992099999799,778.9992099999799,779.0158954000217,779.7317599000526,space,0.7232546000741422,None,779.7322650999413,780.4457557667085,780.7612725999788,780.7462707999512,780.7462925,780.7612725999788,780.7612725999788,780.7612725999788,783.4713661999558,102,1,[2.7235820000059903],[2.7235896999482065],060059,001,2024-11-14_21h58.12.486,intentional binding (1),2024.1.5,None,2024-11-14 21h58.17.313437 +0530,
0.7,400.0,unexp,12,8,152,2,783.4869451999548,,783.4725716000539,783.4869451999548,784.4842777000158,784.4842777000158,784.5006539000315,785.3665590000455,space,0.8811803000280634,None,785.3670604000217,786.0800092666216,786.3958287999849,786.3760888999677,786.3761156000546,786.3958287999849,786.3958287999849,786.3958287999849,791.1513943999889,320,1,[4.7736010000808164],[4.773612300050445],060059,001,2024-11-14_21h58.12.486,intentional binding (1),2024.1.5,None,2024-11-14 21h58.17.313437 +0530,
0.1,1000.0,exp,12,9,153,3,791.1666759000509,,791.1524833000149,791.1666759000509,792.163945599983,792.163945599983,792.180778399983,792.5977339000092,space,0.43222509999759495,None,792.5984409000375,792.7123104666864,793.0283921999508,793.0106562999426,793.0106831000303,793.0283921999508,793.0283921999508,793.0283921999508,798.1326753999456,300,1,[5.120436899946071],[5.120450199930929],060059,001,2024-11-14_21h58.12.486,intentional binding (1),2024.1.5,None,2024-11-14 21h58.17.313437 +0530,
0.1,400.0,unexp,12,10,154,0,798.1476905999589,,798.1336273999768,798.1476905999589,799.1448477999656,799.1448477999656,799.1617250999552,800.5917845999938,space,1.4392328000394627,None,800.5922939000302,800.707392066721,801.0390718000126,801.0118436000193,801.0118763000355,801.0390718000126,801.0390718000126,801.0390718000126,806.8609933000407,300,1,[5.847403099993244],[5.847413199953735],060059,001,2024-11-14_21h58.12.486,intentional binding (1),2024.1.5,None,2024-11-14 21h58.17.313437 +0530,
0.7,1000.0,exp,12,11,155,11,806.8739297999418,,806.8622268000036,806.8739297999418,807.8713374999934,807.8713374999934,807.8875188000384,816.1663580999593,space,8.293599399970844,None,816.1668573000352,816.8797276666194,817.1951645999798,817.1809950000024,817.1810229999828,817.1951645999798,817.1951645999798,817.1951645999798,819.7071046999772,200,1,[2.524343500030227],[2.5243514999747276],060059,001,2024-11-14_21h58.12.486,intentional binding (1),2024.1.5,None,2024-11-14 21h58.17.313437 +0530,
0.4,400.0,unexp,13,0,156,1,819.7220779000199,,819.7081811000244,819.7220779000199,820.7191224999842,820.7191224999842,820.7357594000059,822.1663090000511,space,1.4373079999350011,None,822.1668074000045,822.5806967666178,822.8959983999957,822.8770464000409,822.8770797999459,822.8959983999957,822.8959983999957,822.8959983999957,826.1056476999656,320,1,[3.2267630000133067],[3.2267703999532387],060059,001,2024-11-14_21h58.12.486,intentional binding (1),2024.1.5,None,2024-11-14 21h58.17.313437 +0530,
0.1,1000.0,exp,13,1,157,3,826.1211877000169,,826.1066105999635,826.1211877000169,827.1187877000193,827.1187877000193,827.1352165999706,828.0671275000204,space,0.9426742000505328,None,828.0677685000119,828.1822550667023,828.4972840999835,828.477395599999,828.4774464000366,828.4972840999835,828.4972840999835,828.4972840999835,832.3050651000231,400,1,[3.8256435999646783],[3.8256566000636667],060059,001,2024-11-14_21h58.12.486,intentional binding (1),2024.1.5,None,2024-11-14 21h58.17.313437 +0530,
0.7,1000.0,exp,13,2,158,8,832.3202750000055,,832.3060160000459,832.3202750000055,833.3175059999921,833.3175059999921,833.3338313999702,838.687294000003,space,5.364046199945733,None,838.6879494999885,839.4009143667101,839.7175617999746,839.6984624999459,839.6984900000389,839.7175617999746,839.7175617999746,839.7175617999746,842.4980401000357,800,1,[2.7975812000222504],[2.79759189998731],060059,001,2024-11-14_21h58.12.486,intentional binding (1),2024.1.5,None,2024-11-14 21h58.17.313437 +0530,
0.4,1000.0,exp,13,3,159,10,842.5099423999782,,842.4993348999997,842.5099423999782,843.5072948999587,843.5072948999587,843.5238188000512,845.9849738999619,space,2.462192500010133,None,845.9855842999532,846.3990293666759,846.7144638000173,846.6956674999674,846.6957934999955,846.7144638000173,846.7144638000173,846.7144638000173,849.0591846999596,600,1,[2.3617572999792174],[2.3617669999366626],060059,001,2024-11-14_21h58.12.486,intentional binding (1),2024.1.5,None,2024-11-14 21h58.17.313437 +0530,
0.4,1000.0,exp,13,4,160,4,849.0742779999855,,849.0601489999681,849.0742779999855,850.0718725999468,850.0718725999468,850.088224600011,850.3056422999944,space,0.2273859999841079,None,850.3063197000301,850.7201157666316,851.0357104000286,851.0157171999454,851.0157442000345,851.0357104000286,851.0357104000286,851.0357104000286,859.2817579999682,300,1,[8.264195800060406],[8.2642033000011],060059,001,2024-11-14_21h58.12.486,intentional binding (1),2024.1.5,None,2024-11-14 21h58.17.313437 +0530,
0.1,400.0,unexp,13,5,161,0,859.2970478999778,,859.2827446000301,859.2970478999778,860.2944005999598,860.2944005999598,860.3113056000439,860.5114171000314,space,0.21235609997529536,None,860.5119102999452,860.6269727667134,860.9426009000163,860.9252099999576,860.9252374000498,860.9426009000163,860.9426009000163,860.9426009000163,864.4526310000219,400,1,[3.5257734999759123],[3.525783499935642],060059,001,2024-11-14_21h58.12.486,intentional binding (1),2024.1.5,None,2024-11-14 21h58.17.313437 +0530,
0.4,1000.0,exp,13,6,162,7,864.465869800013,,864.4538001999608,864.465869800013,865.4626743000117,865.4626743000117,865.479572100041,865.7298522999627,space,0.2529390000272542,None,865.7303621000028,866.1443991666931,866.4605340000126,866.4396237000474,866.4396506000194,866.4605340000126,866.4605340000126,866.4605340000126,868.4905072999536,300,1,[2.048601599992253],[2.048609899939038],060059,001,2024-11-14_21h58.12.486,intentional binding (1),2024.1.5,None,2024-11-14 21h58.17.313437 +0530,
0.7,1000.0,exp,13,7,163,11,868.5056769999792,,868.4915695000091,868.5056769999792,869.5028927999665,869.5028927999665,869.5190465000342,869.7036221000017,space,0.1931722000008449,None,869.704288799956,870.4166934667194,870.7322969999514,870.716960800055,870.71698810003,870.7322969999514,870.7322969999514,870.7322969999514,874.1913983999402,900,1,[3.472836400032975],[3.4728498000185937],060059,001,2024-11-14_21h58.12.486,intentional binding (1),2024.1.5,None,2024-11-14 21h58.17.313437 +0530,
0.1,1000.0,exp,13,8,164,6,874.2068178000045,,874.1923534999951,874.2068178000045,875.2035376999411,875.2035376999411,875.2208706000238,876.7842461000546,space,1.5790021000429988,None,876.7847620000248,876.8998488666296,877.2312820000225,877.2040132999537,877.2040385000291,877.2312820000225,877.2312820000225,877.2312820000225,879.2292656000354,100,1,[2.023697099997662],[2.023707899963483],060059,001,2024-11-14_21h58.12.486,intentional binding (1),2024.1.5,None,2024-11-14 21h58.17.313437 +0530,
0.1,1000.0,exp,13,9,165,9,879.2418193000485,,879.2302243000013,879.2418193000485,880.239219900046,880.239219900046,880.255786099995,880.8886922000092,space,0.6471946999663487,None,880.8891907999641,881.0036679666994,881.3200700999587,881.3042235000175,881.3042486999766,881.3200700999587,881.3200700999587,881.3200700999587,882.9839733000263,200,1,[1.6780891000526026],[1.6780982000054792],060059,001,2024-11-14_21h58.12.486,intentional binding (1),2024.1.5,None,2024-11-14 21h58.17.313437 +0530,
0.7,400.0,unexp,13,10,166,2,882.9989155999501,,882.985169899941,882.9989155999501,883.9962659000303,883.9962659000303,884.0128346999991,885.8463635000517,space,1.8440492999507114,None,885.8472736999975,886.5560972666174,886.8708695000387,886.8559503999422,886.855980500055,886.8708695000387,886.8708695000387,886.8708695000387,888.3050014000037,300,1,[1.447314799996093],[1.447325700079091],060059,001,2024-11-14_21h58.12.486,intentional binding (1),2024.1.5,None,2024-11-14 21h58.17.313437 +0530,
0.7,1000.0,exp,13,11,167,5,888.3171143000363,,888.3064436000423,888.3171143000363,889.3140640999773,889.3140640999773,889.3309227999416,889.6150502999662,space,0.29798199993092567,None,889.6155762000126,890.3285563666179,890.6451679999591,890.6316818999476,890.6317086000345,890.6451679999591,890.6451679999591,890.6451679999591,892.4747310999664,700,1,[1.841438699979335],[1.841448500053957],060059,001,2024-11-14_21h58.12.486,intentional binding (1),2024.1.5,None,2024-11-14 21h58.17.313437 +0530,
0.4,400.0,unexp,14,0,168,1,892.4898362999666,,892.4756749000517,892.4898362999666,893.4870349999401,893.4870349999401,893.5038584999857,893.6878860999714,space,0.19929779996164143,None,893.6883857000503,894.102513166614,894.4183382000192,894.402961200045,894.4029844999895,894.4183382000192,894.4183382000192,894.4183382000192,902.4506076999824,430,1,[8.04599330003839],[8.046006400021724],060059,001,2024-11-14_21h58.12.486,intentional binding (1),2024.1.5,None,2024-11-14 21h58.17.313437 +0530,
0.7,1000.0,exp,14,1,169,5,902.4625809999998,,902.4516382000293,902.4625809999998,903.4597751000547,903.4597751000547,903.4765100000077,907.6329639000469,space,4.1718053999356925,None,907.633462400001,908.3467700666554,908.6778884999803,908.6490704999887,908.6491105999448,908.6778884999803,908.6778884999803,908.6778884999803,911.9761168000405,800,1,[3.325219599995762],[3.325230900081806],060059,001,2024-11-14_21h58.12.486,intentional binding (1),2024.1.5,None,2024-11-14 21h58.17.313437 +0530,
0.1,1000.0,exp,14,2,170,9,911.9863964999677,,911.9773519000155,911.9863964999677,912.9837201999617,912.9837201999617,913.0002952999785,913.2510867999517,space,0.2544503000099212,None,913.251708100026,913.3660801666595,913.6811369000352,913.6614420000114,913.6614682999789,913.6811369000352,913.6811369000352,913.6811369000352,917.0280759999878,300,1,[3.365080500021577],[3.365090800100006],060059,001,2024-11-14_21h58.12.486,intentional binding (1),2024.1.5,None,2024-11-14 21h58.17.313437 +0530,
0.7,400.0,unexp,14,3,171,2,917.0394759999472,,917.0290430000168,917.0394759999472,918.0373051999486,918.0373051999486,918.053070999973,918.2874347000034,space,0.24690749996807426,None,918.2879287000396,919.0005440666612,919.3323812999879,919.3035908999736,919.3036171999411,919.3323812999879,919.3323812999879,919.3323812999879,921.0830778000527,800,1,[1.777936700033024],[1.777946999995038],060059,001,2024-11-14_21h58.12.486,intentional binding (1),2024.1.5,None,2024-11-14 21h58.17.313437 +0530,
0.1,1000.0,exp,14,4,172,3,921.0951190000051,,921.0840517000179,921.0951190000051,922.0920468000113,922.0920468000113,922.1088546000537,922.3091390999616,space,0.2004248999292031,None,922.3096580999554,922.4248512666711,922.7567809000029,922.7275884999544,922.7276235999889,922.7567809000029,922.7567809000029,922.7567809000029,927.8347225000034,190,1,[5.105069299926981],[5.105079600005411],060059,001,2024-11-14_21h58.12.486,intentional binding (1),2024.1.5,None,2024-11-14 21h58.17.313437 +0530,
0.4,1000.0,exp,14,5,173,4,927.8431935000117,,927.8359469000134,927.8431935000117,928.8404275000212,928.8404275000212,928.8572989999666,929.2241494999616,space,0.3815959000494331,None,929.2246453000116,929.6383222666375,929.9533460999955,929.9385963000241,929.9386234999984,929.9533460999955,929.9533460999955,929.9533460999955,932.7144394999486,200,1,[2.774314499925822],[2.774322699988261],060059,001,2024-11-14_21h58.12.486,intentional binding (1),2024.1.5,None,2024-11-14 21h58.17.313437 +0530,
0.1,400.0,unexp,14,6,174,0,932.7297896999517,,932.715413100028,932.7297896999517,933.7270132999984,933.7270132999984,933.7437471999438,933.9778128000326,space,0.23379379999823868,None,933.9783104999806,934.0926775666924,934.4248187000048,934.3969324000063,934.3969806000241,934.4248187000048,934.4248187000048,934.4248187000048,936.3591783999582,300,1,[1.96023339999374],[1.9602440999587998],060059,001,2024-11-14_21h58.12.486,intentional binding (1),2024.1.5,None,2024-11-14 21h58.17.313437 +0530,
0.7,1000.0,exp,14,7,175,8,936.3698081999901,,936.3603149999981,936.3698081999901,937.3669588999473,937.3669588999473,937.3839670000016,937.6342716999934,space,0.2653621999779716,None,937.6347686000518,938.3482064666498,938.6790173999616,938.6638492999482,938.6638716000016,938.6790173999616,938.6790173999616,938.6790173999616,940.5921672999975,400,1,[1.9267027000896633],[1.9267118000425398],060059,001,2024-11-14_21h58.12.486,intentional binding (1),2024.1.5,None,2024-11-14 21h58.17.313437 +0530,
0.7,1000.0,exp,14,8,176,11,940.6078368999879,,940.5931254999596,940.6078368999879,941.6048971999553,941.6048971999553,941.6214876999729,941.8551823000307,space,0.2367328000254929,None,941.8558535000193,942.5693262666503,942.8891635999898,942.866725800035,942.8667822999996,942.8891635999898,942.8891635999898,942.8891635999898,945.1308002999867,300,1,[2.2618312999838963],[2.2618386999238282],060059,001,2024-11-14_21h58.12.486,intentional binding (1),2024.1.5,None,2024-11-14 21h58.17.313437 +0530,
0.4,1000.0,exp,14,9,177,7,945.1459030999686,,945.1321058000322,945.1459030999686,946.1431283000275,946.1431283000275,946.1595935000223,946.3940529999672,space,0.24930550006683916,None,946.3945482000127,946.8080896666545,947.1395220000413,947.1129695999552,947.1130094000255,947.1395220000413,947.1395220000413,947.1395220000413,949.9041413999512,200,1,[2.7895357999950647],[2.7895468999631703],060059,001,2024-11-14_21h58.12.486,intentional binding (1),2024.1.5,None,2024-11-14 21h58.17.313437 +0530,
0.4,1000.0,exp,14,10,178,10,949.9153604000458,,949.9053145000362,949.9153604000458,950.9136745000142,950.9136745000142,950.9298617999884,951.2961895999615,space,0.3677361999871209,None,951.2966982999933,951.7107070667009,952.026630300039,952.007537599944,952.0075781000196,952.026630300039,952.026630300039,952.026630300039,953.8264639999834,400,1,[1.816675700014457],[1.8166865999810398],060059,001,2024-11-14_21h58.12.486,intentional binding (1),2024.1.5,None,2024-11-14 21h58.17.313437 +0530,
0.1,1000.0,exp,14,11,179,6,953.838781999948,,953.8274543999578,953.838781999948,954.8355090999394,954.8355090999394,954.8516961000278,955.2529211999499,space,0.40390310005750507,None,955.2534267999581,955.3676658666266,955.6828004000126,955.6686581000104,955.6686882000067,955.6828004000126,955.6828004000126,955.6828004000126,963.6963853999623,210,1,[8.026206099893898],[8.026214299956337],060059,001,2024-11-14_21h58.12.486,intentional binding (1),2024.1.5,None,2024-11-14 21h58.17.313437 +0530,
0.4,400.0,unexp,15,0,180,1,963.7117881000158,,963.6973437000415,963.7117881000158,964.7091517999652,964.7091517999652,964.7255531999399,965.1256642999942,space,0.4018070000456646,None,965.1261675999849,965.5407317666143,965.8720064999652,965.8435511999414,965.8435778000276,965.8720064999652,965.8720064999652,965.8720064999652,967.107387899945,300,1,[1.2623596000485122],[1.2623700000112876],060059,001,2024-11-14_21h58.12.486,intentional binding (1),2024.1.5,None,2024-11-14 21h58.17.313437 +0530,
0.7,1000.0,exp,15,1,181,11,967.1192536999588,,967.1083588000038,967.1192536999588,968.1168126999983,968.1168126999983,968.1331322000478,969.2977011999465,space,1.1664155999897048,None,969.2982037000475,970.0110495666779,970.3260349999764,970.3114974999917,970.3115237999591,970.3260349999764,970.3260349999764,970.3260349999764,973.4364775999566,400,1,[3.123435499961488],[3.1234445999143645],060059,001,2024-11-14_21h58.12.486,intentional binding (1),2024.1.5,None,2024-11-14 21h58.17.313437 +0530,
0.7,1000.0,exp,15,2,182,5,973.452062700002,,973.4374529000488,973.452062700002,974.4490159999696,974.4490159999696,974.4657532999408,974.7990276000346,space,0.3347265999764204,None,974.7995389999705,975.512924966639,975.844916299975,975.8155596999568,975.8156011000392,975.844916299975,975.844916299975,975.844916299975,978.1235943999491,540,1,[2.30600829992909],[2.30601589998696],060059,001,2024-11-14_21h58.12.486,intentional binding (1),2024.1.5,None,2024-11-14 21h58.17.313437 +0530,
0.4,1000.0,exp,15,3,183,4,978.1392254999955,,978.1248262000154,978.1392254999955,979.1362354000448,979.1362354000448,979.1528299999773,979.6195108000538,space,0.4666070999810472,None,979.6200146000483,980.0339103667104,980.3493070999975,980.3345515999827,980.3345764999394,980.3493070999975,980.3493070999975,980.3493070999975,984.8221904000384,219,1,[4.4862061000894755],[4.486214300035499],060059,001,2024-11-14_21h58.12.486,intentional binding (1),2024.1.5,None,2024-11-14 21h58.17.313437 +0530,
0.1,1000.0,exp,15,4,184,3,984.8373445999459,,984.8231625999906,984.8373445999459,985.8350376999588,985.8350376999588,985.8516177000129,986.6339365000022,space,0.7867268000263721,None,986.6344531999785,986.7487469667142,987.0649054999813,987.0474470999907,987.0474738999619,987.0649054999813,987.0649054999813,987.0649054999813,994.61206949997,90,1,[7.56293740007095],[7.562945000012405],060059,001,2024-11-14_21h58.12.486,intentional binding (1),2024.1.5,None,2024-11-14 21h58.17.313437 +0530,
0.4,1000.0,exp,15,5,185,10,994.6278847000212,,994.6130331999739,994.6278847000212,995.6245119999512,995.6245119999512,995.6411915999488,996.0746870999574,space,0.43600260000675917,None,996.0751809999929,996.4894296666646,996.8050350000267,996.7898257000488,996.7898641999927,996.8050350000267,996.8050350000267,996.8050350000267,1001.380530000024,654,1,[4.588916899985634],[4.588930999976583],060059,001,2024-11-14_21h58.12.486,intentional binding (1),2024.1.5,None,2024-11-14 21h58.17.313437 +0530,
0.1,400.0,unexp,15,6,186,0,1001.3915231000283,,1001.381510700041,1001.3915231000283,1002.3887356999912,1002.3887356999912,1002.4052982000285,1002.5395954000414,space,0.137788699939847,None,1002.5401055999682,1002.6550070666747,1002.9708508999902,1002.9559132999857,1002.9559392999508,1002.9708508999902,1002.9708508999902,1002.9708508999902,1006.1969365999685,70,1,[3.2395009000319988],[3.239510399987921],060059,001,2024-11-14_21h58.12.486,intentional binding (1),2024.1.5,None,2024-11-14 21h58.17.313437 +0530,
0.1,1000.0,exp,15,7,187,9,1006.2123149999534,,1006.1978998999693,1006.2123149999534,1007.2098357000505,1007.2098357000505,1007.2264142999775,1007.2770101000206,space,0.05676300008781254,None,1007.2775102999876,1007.3925809667019,1007.7082902000402,1007.6931397000444,1007.6931623999844,1007.7082902000402,1007.7082902000402,1007.7082902000402,1009.8234862000099,90,1,[2.1285006999969482],[2.1285114000784233],060059,001,2024-11-14_21h58.12.486,intentional binding (1),2024.1.5,None,2024-11-14 21h58.17.313437 +0530,
0.4,1000.0,exp,15,8,188,7,1009.8358313999488,,1009.8248340000282,1009.8358313999488,1010.833230200049,1010.833230200049,1010.8495257000322,1011.29972239997,space,0.4641282999655232,None,1011.3002192000276,1011.7140634666468,1012.0462235999876,1012.0182765999925,1012.0183184999623,1012.0462235999876,1012.0462235999876,1012.0462235999876,1016.7042828000267,120,1,[4.68392970005516],[4.683943800046109],060059,001,2024-11-14_21h58.12.486,intentional binding (1),2024.1.5,None,2024-11-14 21h58.17.313437 +0530,
0.7,1000.0,exp,15,9,189,8,1016.7172256999766,,1016.7052722999942,1016.7172256999766,1017.7142205000273,1017.7142205000273,1017.7307737999945,1017.7486170000047,space,0.021249799989163876,None,1017.749118399981,1018.4619354666249,1018.7771497000358,1018.7621861999505,1018.7622182999621,1018.7771497000358,1018.7771497000358,1018.7771497000358,1025.8642201000475,210,1,[7.100177599932067],[7.100192299927585],060059,001,2024-11-14_21h58.12.486,intentional binding (1),2024.1.5,None,2024-11-14 21h58.17.313437 +0530,
0.7,400.0,unexp,15,10,190,2,1025.8756620999775,,1025.865332300018,1025.8756620999775,1026.8735577000189,1026.8735577000189,1026.8891096000443,1027.388758300047,space,0.5109098000684753,None,1027.389253899979,1028.1023861666947,1028.418570400041,1028.4019580999739,1028.4019841000554,1028.418570400041,1028.418570400041,1028.418570400041,1032.375188599981,190,1,[3.9711397999199107],[3.9711509000044316],060059,001,2024-11-14_21h58.12.486,intentional binding (1),2024.1.5,None,2024-11-14 21h58.17.313437 +0530,
0.1,1000.0,exp,15,11,191,6,1032.3903080999735,,1032.3762758999947,1032.3903080999735,1033.3870556000038,1033.3870556000038,1033.4039629999897,1034.0201731999987,space,0.6169211999513209,None,1034.0208690999425,1034.1355540666302,1034.4681331000174,1034.4393525999621,1034.439396199945,1034.4681331000174,1034.4681331000174,1034.4681331000174,1037.328662099957,652,1,[2.8871750999242067],[2.8871864000102505],060059,001,2024-11-14_21h58.12.486,intentional binding (1),2024.1.5,None,2024-11-14 21h58.17.313437 +0530,
0.4,1000.0,exp,16,0,192,7,1037.3440542000462,,1037.3296745999833,1037.3440542000462,1038.3411452000146,1038.3411452000146,1038.357823600003,1038.5750501000439,space,0.2262390999821946,None,1038.5755483999965,1038.9893156666114,1039.3214537000167,1039.2927641999559,1039.2927913000458,1039.3214537000167,1039.3214537000167,1039.3214537000167,1042.5650293999934,300,1,[3.2704764999216422],[3.270488000009209],060059,001,2024-11-14_21h58.12.486,intentional binding (1),2024.1.5,None,2024-11-14 21h58.17.313437 +0530,
0.7,1000.0,exp,16,1,193,11,1042.5796534000547,,1042.5662793999654,1042.5796534000547,1043.5768843000405,1043.5768843000405,1043.593997799966,1043.8436588999466,space,0.25630040001124144,None,1043.8441632999456,1044.5577933666102,1044.8893917999812,1044.8607238999684,1044.860758900002,1044.8893917999812,1044.8893917999812,1044.8893917999812,1047.5378068000427,310,1,[2.6754631999647245],[2.6754743000492454],060059,001,2024-11-14_21h58.12.486,intentional binding (1),2024.1.5,None,2024-11-14 21h58.17.313437 +0530,
0.4,1000.0,exp,16,2,194,10,1047.5493521999451,,1047.5387696000398,1047.5493521999451,1048.546512699977,1048.546512699977,1048.5632386999787,1048.8638973000343,space,0.31626089999917895,None,1048.8645777999773,1049.277759666675,1049.593964999949,1049.5755763999769,1049.5756051999633,1049.593964999949,1049.593964999949,1049.593964999949,1051.2072051000432,200,1,[1.6300068000564352],[1.630014199996367],060059,001,2024-11-14_21h58.12.486,intentional binding (1),2024.1.5,None,2024-11-14 21h58.17.313437 +0530,
0.1,1000.0,exp,16,3,195,6,1051.2226924000424,,1051.20825039997,1051.2226924000424,1052.2202273000148,1052.2202273000148,1052.2370050999452,1053.1187083999976,space,0.8894582000793889,None,1053.1192097999738,1053.2339137666897,1053.5489997999393,1053.5327170000528,1053.532743800024,1053.5489997999393,1053.5489997999393,1053.5489997999393,1056.9416401000344,100,1,[3.407312900060788],[3.407320800004527],060059,001,2024-11-14_21h58.12.486,intentional binding (1),2024.1.5,None,2024-11-14 21h58.17.313437 +0530,
0.1,1000.0,exp,16,4,196,9,1056.9572829000535,,1056.9427437999402,1056.9572829000535,1057.9543321000529,1057.9543321000529,1057.9711582000018,1058.6367726999451,space,0.6788273999700323,None,1058.6372839999967,1058.7531920666845,1059.0682678999729,1059.0536197999609,1059.0536428000196,1059.0682678999729,1059.0682678999729,1059.0682678999729,1061.648882999958,200,1,[2.5936975999502465],[2.593709300039336],060059,001,2024-11-14_21h58.12.486,intentional binding (1),2024.1.5,None,2024-11-14 21h58.17.313437 +0530,
0.1,400.0,unexp,16,5,197,0,1061.6601851999876,,1061.649915100017,1061.6601851999876,1062.6573856999748,1062.6573856999748,1062.6742018999648,1063.1075486000045,space,0.4386174000101164,None,1063.1080536000081,1063.2230048666281,1063.5548120999592,1063.539091600047,1063.5391149999923,1063.5548120999592,1063.5548120999592,1063.5548120999592,1067.1471360000432,200,1,[3.60643110005185],[3.6064387999940664],060059,001,2024-11-14_21h58.12.486,intentional binding (1),2024.1.5,None,2024-11-14 21h58.17.313437 +0530,
